!	AVX	THIN	FILM	OPERATION				
!								
!	0603	SIZE	3dB	90deg	COUPLER	P/N	DB0603N2500ANTR	
!								
!	Created	october	2010					
!								
!	Network	Analyzer	HP8720E	S.07.64:	"Feb23,"	2000	Serial	No.US39172382
!								
!		
# MHZ S MA R 50

2200 0.137 -159.491 0.719 -46.158 0.638 41.62 0.142 -17.019
          0.719 -46.158 0.137 -159.491 0.142 -17.019 0.638 41.62
          0.638 41.62 0.142 -17.019 0.137 -159.491 0.719 -46.158
          0.142 -17.019 0.638 41.62 0.719 -46.158 0.137 -159.491
2201.603 0.137 -159.518 0.719 -46.181 0.638 41.598 0.143 -17.075
          0.719 -46.181 0.137 -159.518 0.143 -17.075 0.638 41.598
          0.638 41.598 0.143 -17.075 0.137 -159.518 0.719 -46.181
          0.143 -17.075 0.638 41.598 0.719 -46.181 0.137 -159.518
2203.206 0.137 -159.545 0.719 -46.204 0.638 41.576 0.143 -17.13
          0.719 -46.204 0.137 -159.545 0.143 -17.13 0.638 41.576
          0.638 41.576 0.143 -17.13 0.137 -159.545 0.719 -46.204
          0.143 -17.13 0.638 41.576 0.719 -46.204 0.137 -159.545
2204.81 0.137 -159.571 0.718 -46.228 0.638 41.554 0.143 -17.186
          0.718 -46.228 0.137 -159.571 0.143 -17.186 0.638 41.554
          0.638 41.554 0.143 -17.186 0.137 -159.571 0.718 -46.228
          0.143 -17.186 0.638 41.554 0.718 -46.228 0.137 -159.571
2206.413 0.137 -159.598 0.718 -46.251 0.639 41.532 0.143 -17.242
          0.718 -46.251 0.137 -159.598 0.143 -17.242 0.639 41.532
          0.639 41.532 0.143 -17.242 0.137 -159.598 0.718 -46.251
          0.143 -17.242 0.639 41.532 0.718 -46.251 0.137 -159.598
2208.016 0.137 -159.625 0.718 -46.274 0.639 41.51 0.143 -17.297
          0.718 -46.274 0.137 -159.625 0.143 -17.297 0.639 41.51
          0.639 41.51 0.143 -17.297 0.137 -159.625 0.718 -46.274
          0.143 -17.297 0.639 41.51 0.718 -46.274 0.137 -159.625
2209.619 0.137 -159.652 0.718 -46.297 0.639 41.488 0.143 -17.353
          0.718 -46.297 0.137 -159.652 0.143 -17.353 0.639 41.488
          0.639 41.488 0.143 -17.353 0.137 -159.652 0.718 -46.297
          0.143 -17.353 0.639 41.488 0.718 -46.297 0.137 -159.652
2211.222 0.137 -159.678 0.718 -46.32 0.639 41.467 0.143 -17.408
          0.718 -46.32 0.137 -159.678 0.143 -17.408 0.639 41.467
          0.639 41.467 0.143 -17.408 0.137 -159.678 0.718 -46.32
          0.143 -17.408 0.639 41.467 0.718 -46.32 0.137 -159.678
2212.826 0.137 -159.705 0.717 -46.343 0.64 41.445 0.143 -17.464
          0.717 -46.343 0.137 -159.705 0.143 -17.464 0.64 41.445
          0.64 41.445 0.143 -17.464 0.137 -159.705 0.717 -46.343
          0.143 -17.464 0.64 41.445 0.717 -46.343 0.137 -159.705
2214.429 0.137 -159.732 0.717 -46.366 0.64 41.423 0.143 -17.519
          0.717 -46.366 0.137 -159.732 0.143 -17.519 0.64 41.423
          0.64 41.423 0.143 -17.519 0.137 -159.732 0.717 -46.366
          0.143 -17.519 0.64 41.423 0.717 -46.366 0.137 -159.732
2216.032 0.137 -159.758 0.717 -46.39 0.64 41.401 0.143 -17.575
          0.717 -46.39 0.137 -159.758 0.143 -17.575 0.64 41.401
          0.64 41.401 0.143 -17.575 0.137 -159.758 0.717 -46.39
          0.143 -17.575 0.64 41.401 0.717 -46.39 0.137 -159.758
2217.635 0.137 -159.785 0.717 -46.413 0.64 41.379 0.143 -17.63
          0.717 -46.413 0.137 -159.785 0.143 -17.63 0.64 41.379
          0.64 41.379 0.143 -17.63 0.137 -159.785 0.717 -46.413
          0.143 -17.63 0.64 41.379 0.717 -46.413 0.137 -159.785
2219.238 0.137 -159.811 0.717 -46.436 0.64 41.357 0.143 -17.686
          0.717 -46.436 0.137 -159.811 0.143 -17.686 0.64 41.357
          0.64 41.357 0.143 -17.686 0.137 -159.811 0.717 -46.436
          0.143 -17.686 0.64 41.357 0.717 -46.436 0.137 -159.811
2220.842 0.137 -159.837 0.716 -46.459 0.641 41.336 0.143 -17.741
          0.716 -46.459 0.137 -159.837 0.143 -17.741 0.641 41.336
          0.641 41.336 0.143 -17.741 0.137 -159.837 0.716 -46.459
          0.143 -17.741 0.641 41.336 0.716 -46.459 0.137 -159.837
2222.445 0.137 -159.864 0.716 -46.482 0.641 41.314 0.143 -17.797
          0.716 -46.482 0.137 -159.864 0.143 -17.797 0.641 41.314
          0.641 41.314 0.143 -17.797 0.137 -159.864 0.716 -46.482
          0.143 -17.797 0.641 41.314 0.716 -46.482 0.137 -159.864
2224.048 0.137 -159.89 0.716 -46.505 0.641 41.292 0.143 -17.852
          0.716 -46.505 0.137 -159.89 0.143 -17.852 0.641 41.292
          0.641 41.292 0.143 -17.852 0.137 -159.89 0.716 -46.505
          0.143 -17.852 0.641 41.292 0.716 -46.505 0.137 -159.89
2225.651 0.137 -159.916 0.716 -46.528 0.641 41.27 0.143 -17.907
          0.716 -46.528 0.137 -159.916 0.143 -17.907 0.641 41.27
          0.641 41.27 0.143 -17.907 0.137 -159.916 0.716 -46.528
          0.143 -17.907 0.641 41.27 0.716 -46.528 0.137 -159.916
2227.255 0.137 -159.943 0.715 -46.551 0.642 41.249 0.143 -17.962
          0.715 -46.551 0.137 -159.943 0.143 -17.962 0.642 41.249
          0.642 41.249 0.143 -17.962 0.137 -159.943 0.715 -46.551
          0.143 -17.962 0.642 41.249 0.715 -46.551 0.137 -159.943
2228.858 0.137 -159.969 0.715 -46.574 0.642 41.227 0.143 -18.018
          0.715 -46.574 0.137 -159.969 0.143 -18.018 0.642 41.227
          0.642 41.227 0.143 -18.018 0.137 -159.969 0.715 -46.574
          0.143 -18.018 0.642 41.227 0.715 -46.574 0.137 -159.969
2230.461 0.136 -159.995 0.715 -46.597 0.642 41.205 0.143 -18.073
          0.715 -46.597 0.136 -159.995 0.143 -18.073 0.642 41.205
          0.642 41.205 0.143 -18.073 0.136 -159.995 0.715 -46.597
          0.143 -18.073 0.642 41.205 0.715 -46.597 0.136 -159.995
2232.064 0.136 -160.021 0.715 -46.62 0.642 41.184 0.143 -18.128
          0.715 -46.62 0.136 -160.021 0.143 -18.128 0.642 41.184
          0.642 41.184 0.143 -18.128 0.136 -160.021 0.715 -46.62
          0.143 -18.128 0.642 41.184 0.715 -46.62 0.136 -160.021
2233.667 0.136 -160.047 0.715 -46.643 0.643 41.162 0.143 -18.183
          0.715 -46.643 0.136 -160.047 0.143 -18.183 0.643 41.162
          0.643 41.162 0.143 -18.183 0.136 -160.047 0.715 -46.643
          0.143 -18.183 0.643 41.162 0.715 -46.643 0.136 -160.047
2235.271 0.136 -160.073 0.714 -46.666 0.643 41.14 0.143 -18.239
          0.714 -46.666 0.136 -160.073 0.143 -18.239 0.643 41.14
          0.643 41.14 0.143 -18.239 0.136 -160.073 0.714 -46.666
          0.143 -18.239 0.643 41.14 0.714 -46.666 0.136 -160.073
2236.874 0.136 -160.099 0.714 -46.689 0.643 41.119 0.143 -18.294
          0.714 -46.689 0.136 -160.099 0.143 -18.294 0.643 41.119
          0.643 41.119 0.143 -18.294 0.136 -160.099 0.714 -46.689
          0.143 -18.294 0.643 41.119 0.714 -46.689 0.136 -160.099
2238.477 0.136 -160.125 0.714 -46.712 0.643 41.097 0.143 -18.349
          0.714 -46.712 0.136 -160.125 0.143 -18.349 0.643 41.097
          0.643 41.097 0.143 -18.349 0.136 -160.125 0.714 -46.712
          0.143 -18.349 0.643 41.097 0.714 -46.712 0.136 -160.125
2240.08 0.136 -160.151 0.714 -46.735 0.644 41.075 0.143 -18.404
          0.714 -46.735 0.136 -160.151 0.143 -18.404 0.644 41.075
          0.644 41.075 0.143 -18.404 0.136 -160.151 0.714 -46.735
          0.143 -18.404 0.644 41.075 0.714 -46.735 0.136 -160.151
2241.683 0.136 -160.176 0.714 -46.758 0.644 41.054 0.143 -18.459
          0.714 -46.758 0.136 -160.176 0.143 -18.459 0.644 41.054
          0.644 41.054 0.143 -18.459 0.136 -160.176 0.714 -46.758
          0.143 -18.459 0.644 41.054 0.714 -46.758 0.136 -160.176
2243.287 0.136 -160.202 0.713 -46.781 0.644 41.032 0.143 -18.514
          0.713 -46.781 0.136 -160.202 0.143 -18.514 0.644 41.032
          0.644 41.032 0.143 -18.514 0.136 -160.202 0.713 -46.781
          0.143 -18.514 0.644 41.032 0.713 -46.781 0.136 -160.202
2244.89 0.136 -160.228 0.713 -46.804 0.644 41.011 0.143 -18.569
          0.713 -46.804 0.136 -160.228 0.143 -18.569 0.644 41.011
          0.644 41.011 0.143 -18.569 0.136 -160.228 0.713 -46.804
          0.143 -18.569 0.644 41.011 0.713 -46.804 0.136 -160.228
2246.493 0.136 -160.254 0.713 -46.827 0.645 40.989 0.143 -18.624
          0.713 -46.827 0.136 -160.254 0.143 -18.624 0.645 40.989
          0.645 40.989 0.143 -18.624 0.136 -160.254 0.713 -46.827
          0.143 -18.624 0.645 40.989 0.713 -46.827 0.136 -160.254
2248.096 0.136 -160.279 0.713 -46.85 0.645 40.967 0.143 -18.679
          0.713 -46.85 0.136 -160.279 0.143 -18.679 0.645 40.967
          0.645 40.967 0.143 -18.679 0.136 -160.279 0.713 -46.85
          0.143 -18.679 0.645 40.967 0.713 -46.85 0.136 -160.279
2249.699 0.136 -160.305 0.712 -46.873 0.645 40.946 0.143 -18.734
          0.712 -46.873 0.136 -160.305 0.143 -18.734 0.645 40.946
          0.645 40.946 0.143 -18.734 0.136 -160.305 0.712 -46.873
          0.143 -18.734 0.645 40.946 0.712 -46.873 0.136 -160.305
2251.303 0.136 -160.33 0.712 -46.895 0.645 40.924 0.143 -18.789
          0.712 -46.895 0.136 -160.33 0.143 -18.789 0.645 40.924
          0.645 40.924 0.143 -18.789 0.136 -160.33 0.712 -46.895
          0.143 -18.789 0.645 40.924 0.712 -46.895 0.136 -160.33
2252.906 0.136 -160.356 0.712 -46.918 0.646 40.903 0.143 -18.844
          0.712 -46.918 0.136 -160.356 0.143 -18.844 0.646 40.903
          0.646 40.903 0.143 -18.844 0.136 -160.356 0.712 -46.918
          0.143 -18.844 0.646 40.903 0.712 -46.918 0.136 -160.356
2254.509 0.136 -160.381 0.712 -46.941 0.646 40.881 0.143 -18.898
          0.712 -46.941 0.136 -160.381 0.143 -18.898 0.646 40.881
          0.646 40.881 0.143 -18.898 0.136 -160.381 0.712 -46.941
          0.143 -18.898 0.646 40.881 0.712 -46.941 0.136 -160.381
2256.112 0.136 -160.407 0.712 -46.964 0.646 40.86 0.143 -18.953
          0.712 -46.964 0.136 -160.407 0.143 -18.953 0.646 40.86
          0.646 40.86 0.143 -18.953 0.136 -160.407 0.712 -46.964
          0.143 -18.953 0.646 40.86 0.712 -46.964 0.136 -160.407
2257.715 0.136 -160.432 0.711 -46.987 0.646 40.838 0.143 -19.008
          0.711 -46.987 0.136 -160.432 0.143 -19.008 0.646 40.838
          0.646 40.838 0.143 -19.008 0.136 -160.432 0.711 -46.987
          0.143 -19.008 0.646 40.838 0.711 -46.987 0.136 -160.432
2259.319 0.136 -160.457 0.711 -47.01 0.646 40.817 0.143 -19.063
          0.711 -47.01 0.136 -160.457 0.143 -19.063 0.646 40.817
          0.646 40.817 0.143 -19.063 0.136 -160.457 0.711 -47.01
          0.143 -19.063 0.646 40.817 0.711 -47.01 0.136 -160.457
2260.922 0.136 -160.483 0.711 -47.033 0.647 40.795 0.143 -19.118
          0.711 -47.033 0.136 -160.483 0.143 -19.118 0.647 40.795
          0.647 40.795 0.143 -19.118 0.136 -160.483 0.711 -47.033
          0.143 -19.118 0.647 40.795 0.711 -47.033 0.136 -160.483
2262.525 0.136 -160.508 0.711 -47.055 0.647 40.774 0.143 -19.172
          0.711 -47.055 0.136 -160.508 0.143 -19.172 0.647 40.774
          0.647 40.774 0.143 -19.172 0.136 -160.508 0.711 -47.055
          0.143 -19.172 0.647 40.774 0.711 -47.055 0.136 -160.508
2264.128 0.136 -160.533 0.711 -47.078 0.647 40.752 0.143 -19.227
          0.711 -47.078 0.136 -160.533 0.143 -19.227 0.647 40.752
          0.647 40.752 0.143 -19.227 0.136 -160.533 0.711 -47.078
          0.143 -19.227 0.647 40.752 0.711 -47.078 0.136 -160.533
2265.731 0.136 -160.558 0.71 -47.101 0.647 40.731 0.143 -19.282
          0.71 -47.101 0.136 -160.558 0.143 -19.282 0.647 40.731
          0.647 40.731 0.143 -19.282 0.136 -160.558 0.71 -47.101
          0.143 -19.282 0.647 40.731 0.71 -47.101 0.136 -160.558
2267.335 0.136 -160.583 0.71 -47.124 0.648 40.71 0.143 -19.336
          0.71 -47.124 0.136 -160.583 0.143 -19.336 0.648 40.71
          0.648 40.71 0.143 -19.336 0.136 -160.583 0.71 -47.124
          0.143 -19.336 0.648 40.71 0.71 -47.124 0.136 -160.583
2268.938 0.136 -160.608 0.71 -47.147 0.648 40.688 0.143 -19.391
          0.71 -47.147 0.136 -160.608 0.143 -19.391 0.648 40.688
          0.648 40.688 0.143 -19.391 0.136 -160.608 0.71 -47.147
          0.143 -19.391 0.648 40.688 0.71 -47.147 0.136 -160.608
2270.541 0.135 -160.633 0.71 -47.169 0.648 40.667 0.143 -19.446
          0.71 -47.169 0.135 -160.633 0.143 -19.446 0.648 40.667
          0.648 40.667 0.143 -19.446 0.135 -160.633 0.71 -47.169
          0.143 -19.446 0.648 40.667 0.71 -47.169 0.135 -160.633
2272.144 0.135 -160.658 0.71 -47.192 0.648 40.645 0.143 -19.5
          0.71 -47.192 0.135 -160.658 0.143 -19.5 0.648 40.645
          0.648 40.645 0.143 -19.5 0.135 -160.658 0.71 -47.192
          0.143 -19.5 0.648 40.645 0.71 -47.192 0.135 -160.658
2273.747 0.135 -160.683 0.709 -47.215 0.649 40.624 0.143 -19.555
          0.709 -47.215 0.135 -160.683 0.143 -19.555 0.649 40.624
          0.649 40.624 0.143 -19.555 0.135 -160.683 0.709 -47.215
          0.143 -19.555 0.649 40.624 0.709 -47.215 0.135 -160.683
2275.351 0.135 -160.708 0.709 -47.238 0.649 40.603 0.143 -19.609
          0.709 -47.238 0.135 -160.708 0.143 -19.609 0.649 40.603
          0.649 40.603 0.143 -19.609 0.135 -160.708 0.709 -47.238
          0.143 -19.609 0.649 40.603 0.709 -47.238 0.135 -160.708
2276.954 0.135 -160.733 0.709 -47.26 0.649 40.581 0.143 -19.664
          0.709 -47.26 0.135 -160.733 0.143 -19.664 0.649 40.581
          0.649 40.581 0.143 -19.664 0.135 -160.733 0.709 -47.26
          0.143 -19.664 0.649 40.581 0.709 -47.26 0.135 -160.733
2278.557 0.135 -160.758 0.709 -47.283 0.649 40.56 0.143 -19.718
          0.709 -47.283 0.135 -160.758 0.143 -19.718 0.649 40.56
          0.649 40.56 0.143 -19.718 0.135 -160.758 0.709 -47.283
          0.143 -19.718 0.649 40.56 0.709 -47.283 0.135 -160.758
2280.16 0.135 -160.782 0.709 -47.306 0.65 40.539 0.143 -19.773
          0.709 -47.306 0.135 -160.782 0.143 -19.773 0.65 40.539
          0.65 40.539 0.143 -19.773 0.135 -160.782 0.709 -47.306
          0.143 -19.773 0.65 40.539 0.709 -47.306 0.135 -160.782
2281.764 0.135 -160.807 0.708 -47.329 0.65 40.517 0.143 -19.827
          0.708 -47.329 0.135 -160.807 0.143 -19.827 0.65 40.517
          0.65 40.517 0.143 -19.827 0.135 -160.807 0.708 -47.329
          0.143 -19.827 0.65 40.517 0.708 -47.329 0.135 -160.807
2283.367 0.135 -160.832 0.708 -47.351 0.65 40.496 0.143 -19.882
          0.708 -47.351 0.135 -160.832 0.143 -19.882 0.65 40.496
          0.65 40.496 0.143 -19.882 0.135 -160.832 0.708 -47.351
          0.143 -19.882 0.65 40.496 0.708 -47.351 0.135 -160.832
2284.97 0.135 -160.856 0.708 -47.374 0.65 40.475 0.143 -19.936
          0.708 -47.374 0.135 -160.856 0.143 -19.936 0.65 40.475
          0.65 40.475 0.143 -19.936 0.135 -160.856 0.708 -47.374
          0.143 -19.936 0.65 40.475 0.708 -47.374 0.135 -160.856
2286.573 0.135 -160.881 0.708 -47.397 0.65 40.453 0.143 -19.99
          0.708 -47.397 0.135 -160.881 0.143 -19.99 0.65 40.453
          0.65 40.453 0.143 -19.99 0.135 -160.881 0.708 -47.397
          0.143 -19.99 0.65 40.453 0.708 -47.397 0.135 -160.881
2288.176 0.135 -160.905 0.707 -47.419 0.651 40.432 0.143 -20.045
          0.707 -47.419 0.135 -160.905 0.143 -20.045 0.651 40.432
          0.651 40.432 0.143 -20.045 0.135 -160.905 0.707 -47.419
          0.143 -20.045 0.651 40.432 0.707 -47.419 0.135 -160.905
2289.78 0.135 -160.93 0.707 -47.442 0.651 40.411 0.143 -20.099
          0.707 -47.442 0.135 -160.93 0.143 -20.099 0.651 40.411
          0.651 40.411 0.143 -20.099 0.135 -160.93 0.707 -47.442
          0.143 -20.099 0.651 40.411 0.707 -47.442 0.135 -160.93
2291.383 0.135 -160.954 0.707 -47.465 0.651 40.39 0.143 -20.153
          0.707 -47.465 0.135 -160.954 0.143 -20.153 0.651 40.39
          0.651 40.39 0.143 -20.153 0.135 -160.954 0.707 -47.465
          0.143 -20.153 0.651 40.39 0.707 -47.465 0.135 -160.954
2292.986 0.135 -160.978 0.707 -47.487 0.651 40.368 0.143 -20.208
          0.707 -47.487 0.135 -160.978 0.143 -20.208 0.651 40.368
          0.651 40.368 0.143 -20.208 0.135 -160.978 0.707 -47.487
          0.143 -20.208 0.651 40.368 0.707 -47.487 0.135 -160.978
2294.589 0.135 -161.003 0.707 -47.51 0.652 40.347 0.143 -20.262
          0.707 -47.51 0.135 -161.003 0.143 -20.262 0.652 40.347
          0.652 40.347 0.143 -20.262 0.135 -161.003 0.707 -47.51
          0.143 -20.262 0.652 40.347 0.707 -47.51 0.135 -161.003
2296.192 0.135 -161.027 0.706 -47.532 0.652 40.326 0.143 -20.316
          0.706 -47.532 0.135 -161.027 0.143 -20.316 0.652 40.326
          0.652 40.326 0.143 -20.316 0.135 -161.027 0.706 -47.532
          0.143 -20.316 0.652 40.326 0.706 -47.532 0.135 -161.027
2297.796 0.135 -161.051 0.706 -47.555 0.652 40.305 0.143 -20.37
          0.706 -47.555 0.135 -161.051 0.143 -20.37 0.652 40.305
          0.652 40.305 0.143 -20.37 0.135 -161.051 0.706 -47.555
          0.143 -20.37 0.652 40.305 0.706 -47.555 0.135 -161.051
2299.399 0.135 -161.075 0.706 -47.578 0.652 40.284 0.143 -20.424
          0.706 -47.578 0.135 -161.075 0.143 -20.424 0.652 40.284
          0.652 40.284 0.143 -20.424 0.135 -161.075 0.706 -47.578
          0.143 -20.424 0.652 40.284 0.706 -47.578 0.135 -161.075
2301.002 0.135 -161.1 0.706 -47.6 0.653 40.263 0.143 -20.479
          0.706 -47.6 0.135 -161.1 0.143 -20.479 0.653 40.263
          0.653 40.263 0.143 -20.479 0.135 -161.1 0.706 -47.6
          0.143 -20.479 0.653 40.263 0.706 -47.6 0.135 -161.1
2302.605 0.135 -161.124 0.706 -47.623 0.653 40.241 0.143 -20.533
          0.706 -47.623 0.135 -161.124 0.143 -20.533 0.653 40.241
          0.653 40.241 0.143 -20.533 0.135 -161.124 0.706 -47.623
          0.143 -20.533 0.653 40.241 0.706 -47.623 0.135 -161.124
2304.208 0.135 -161.148 0.705 -47.645 0.653 40.22 0.143 -20.587
          0.705 -47.645 0.135 -161.148 0.143 -20.587 0.653 40.22
          0.653 40.22 0.143 -20.587 0.135 -161.148 0.705 -47.645
          0.143 -20.587 0.653 40.22 0.705 -47.645 0.135 -161.148
2305.812 0.135 -161.172 0.705 -47.668 0.653 40.199 0.143 -20.641
          0.705 -47.668 0.135 -161.172 0.143 -20.641 0.653 40.199
          0.653 40.199 0.143 -20.641 0.135 -161.172 0.705 -47.668
          0.143 -20.641 0.653 40.199 0.705 -47.668 0.135 -161.172
2307.415 0.135 -161.196 0.705 -47.691 0.653 40.178 0.143 -20.695
          0.705 -47.691 0.135 -161.196 0.143 -20.695 0.653 40.178
          0.653 40.178 0.143 -20.695 0.135 -161.196 0.705 -47.691
          0.143 -20.695 0.653 40.178 0.705 -47.691 0.135 -161.196
2309.018 0.134 -161.22 0.705 -47.713 0.654 40.157 0.144 -20.749
          0.705 -47.713 0.134 -161.22 0.144 -20.749 0.654 40.157
          0.654 40.157 0.144 -20.749 0.134 -161.22 0.705 -47.713
          0.144 -20.749 0.654 40.157 0.705 -47.713 0.134 -161.22
2310.621 0.134 -161.243 0.705 -47.736 0.654 40.136 0.144 -20.803
          0.705 -47.736 0.134 -161.243 0.144 -20.803 0.654 40.136
          0.654 40.136 0.144 -20.803 0.134 -161.243 0.705 -47.736
          0.144 -20.803 0.654 40.136 0.705 -47.736 0.134 -161.243
2312.224 0.134 -161.267 0.704 -47.758 0.654 40.115 0.144 -20.857
          0.704 -47.758 0.134 -161.267 0.144 -20.857 0.654 40.115
          0.654 40.115 0.144 -20.857 0.134 -161.267 0.704 -47.758
          0.144 -20.857 0.654 40.115 0.704 -47.758 0.134 -161.267
2313.828 0.134 -161.291 0.704 -47.781 0.654 40.094 0.144 -20.911
          0.704 -47.781 0.134 -161.291 0.144 -20.911 0.654 40.094
          0.654 40.094 0.144 -20.911 0.134 -161.291 0.704 -47.781
          0.144 -20.911 0.654 40.094 0.704 -47.781 0.134 -161.291
2315.431 0.134 -161.315 0.704 -47.803 0.655 40.073 0.144 -20.965
          0.704 -47.803 0.134 -161.315 0.144 -20.965 0.655 40.073
          0.655 40.073 0.144 -20.965 0.134 -161.315 0.704 -47.803
          0.144 -20.965 0.655 40.073 0.704 -47.803 0.134 -161.315
2317.034 0.134 -161.338 0.704 -47.826 0.655 40.051 0.144 -21.019
          0.704 -47.826 0.134 -161.338 0.144 -21.019 0.655 40.051
          0.655 40.051 0.144 -21.019 0.134 -161.338 0.704 -47.826
          0.144 -21.019 0.655 40.051 0.704 -47.826 0.134 -161.338
2318.637 0.134 -161.362 0.704 -47.848 0.655 40.03 0.144 -21.072
          0.704 -47.848 0.134 -161.362 0.144 -21.072 0.655 40.03
          0.655 40.03 0.144 -21.072 0.134 -161.362 0.704 -47.848
          0.144 -21.072 0.655 40.03 0.704 -47.848 0.134 -161.362
2320.24 0.134 -161.386 0.703 -47.871 0.655 40.009 0.144 -21.126
          0.703 -47.871 0.134 -161.386 0.144 -21.126 0.655 40.009
          0.655 40.009 0.144 -21.126 0.134 -161.386 0.703 -47.871
          0.144 -21.126 0.655 40.009 0.703 -47.871 0.134 -161.386
2321.844 0.134 -161.409 0.703 -47.893 0.656 39.988 0.144 -21.18
          0.703 -47.893 0.134 -161.409 0.144 -21.18 0.656 39.988
          0.656 39.988 0.144 -21.18 0.134 -161.409 0.703 -47.893
          0.144 -21.18 0.656 39.988 0.703 -47.893 0.134 -161.409
2323.447 0.134 -161.433 0.703 -47.916 0.656 39.967 0.144 -21.234
          0.703 -47.916 0.134 -161.433 0.144 -21.234 0.656 39.967
          0.656 39.967 0.144 -21.234 0.134 -161.433 0.703 -47.916
          0.144 -21.234 0.656 39.967 0.703 -47.916 0.134 -161.433
2325.05 0.134 -161.456 0.703 -47.938 0.656 39.946 0.144 -21.288
          0.703 -47.938 0.134 -161.456 0.144 -21.288 0.656 39.946
          0.656 39.946 0.144 -21.288 0.134 -161.456 0.703 -47.938
          0.144 -21.288 0.656 39.946 0.703 -47.938 0.134 -161.456
2326.653 0.134 -161.479 0.702 -47.96 0.656 39.925 0.144 -21.341
          0.702 -47.96 0.134 -161.479 0.144 -21.341 0.656 39.925
          0.656 39.925 0.144 -21.341 0.134 -161.479 0.702 -47.96
          0.144 -21.341 0.656 39.925 0.702 -47.96 0.134 -161.479
2328.257 0.134 -161.503 0.702 -47.983 0.656 39.904 0.144 -21.395
          0.702 -47.983 0.134 -161.503 0.144 -21.395 0.656 39.904
          0.656 39.904 0.144 -21.395 0.134 -161.503 0.702 -47.983
          0.144 -21.395 0.656 39.904 0.702 -47.983 0.134 -161.503
2329.86 0.134 -161.526 0.702 -48.005 0.657 39.883 0.144 -21.449
          0.702 -48.005 0.134 -161.526 0.144 -21.449 0.657 39.883
          0.657 39.883 0.144 -21.449 0.134 -161.526 0.702 -48.005
          0.144 -21.449 0.657 39.883 0.702 -48.005 0.134 -161.526
2331.463 0.134 -161.549 0.702 -48.028 0.657 39.862 0.144 -21.503
          0.702 -48.028 0.134 -161.549 0.144 -21.503 0.657 39.862
          0.657 39.862 0.144 -21.503 0.134 -161.549 0.702 -48.028
          0.144 -21.503 0.657 39.862 0.702 -48.028 0.134 -161.549
2333.066 0.134 -161.573 0.702 -48.05 0.657 39.842 0.144 -21.556
          0.702 -48.05 0.134 -161.573 0.144 -21.556 0.657 39.842
          0.657 39.842 0.144 -21.556 0.134 -161.573 0.702 -48.05
          0.144 -21.556 0.657 39.842 0.702 -48.05 0.134 -161.573
2334.669 0.134 -161.596 0.701 -48.073 0.657 39.821 0.144 -21.61
          0.701 -48.073 0.134 -161.596 0.144 -21.61 0.657 39.821
          0.657 39.821 0.144 -21.61 0.134 -161.596 0.701 -48.073
          0.144 -21.61 0.657 39.821 0.701 -48.073 0.134 -161.596
2336.273 0.134 -161.619 0.701 -48.095 0.658 39.8 0.144 -21.663
          0.701 -48.095 0.134 -161.619 0.144 -21.663 0.658 39.8
          0.658 39.8 0.144 -21.663 0.134 -161.619 0.701 -48.095
          0.144 -21.663 0.658 39.8 0.701 -48.095 0.134 -161.619
2337.876 0.134 -161.642 0.701 -48.117 0.658 39.779 0.144 -21.717
          0.701 -48.117 0.134 -161.642 0.144 -21.717 0.658 39.779
          0.658 39.779 0.144 -21.717 0.134 -161.642 0.701 -48.117
          0.144 -21.717 0.658 39.779 0.701 -48.117 0.134 -161.642
2339.479 0.134 -161.665 0.701 -48.14 0.658 39.758 0.144 -21.771
          0.701 -48.14 0.134 -161.665 0.144 -21.771 0.658 39.758
          0.658 39.758 0.144 -21.771 0.134 -161.665 0.701 -48.14
          0.144 -21.771 0.658 39.758 0.701 -48.14 0.134 -161.665
2341.082 0.134 -161.688 0.701 -48.162 0.658 39.737 0.144 -21.824
          0.701 -48.162 0.134 -161.688 0.144 -21.824 0.658 39.737
          0.658 39.737 0.144 -21.824 0.134 -161.688 0.701 -48.162
          0.144 -21.824 0.658 39.737 0.701 -48.162 0.134 -161.688
2342.685 0.134 -161.711 0.7 -48.184 0.659 39.716 0.144 -21.878
          0.7 -48.184 0.134 -161.711 0.144 -21.878 0.659 39.716
          0.659 39.716 0.144 -21.878 0.134 -161.711 0.7 -48.184
          0.144 -21.878 0.659 39.716 0.7 -48.184 0.134 -161.711
2344.289 0.134 -161.734 0.7 -48.207 0.659 39.695 0.144 -21.931
          0.7 -48.207 0.134 -161.734 0.144 -21.931 0.659 39.695
          0.659 39.695 0.144 -21.931 0.134 -161.734 0.7 -48.207
          0.144 -21.931 0.659 39.695 0.7 -48.207 0.134 -161.734
2345.892 0.133 -161.757 0.7 -48.229 0.659 39.674 0.144 -21.984
          0.7 -48.229 0.133 -161.757 0.144 -21.984 0.659 39.674
          0.659 39.674 0.144 -21.984 0.133 -161.757 0.7 -48.229
          0.144 -21.984 0.659 39.674 0.7 -48.229 0.133 -161.757
2347.495 0.133 -161.78 0.7 -48.251 0.659 39.654 0.144 -22.038
          0.7 -48.251 0.133 -161.78 0.144 -22.038 0.659 39.654
          0.659 39.654 0.144 -22.038 0.133 -161.78 0.7 -48.251
          0.144 -22.038 0.659 39.654 0.7 -48.251 0.133 -161.78
2349.098 0.133 -161.802 0.7 -48.274 0.659 39.633 0.144 -22.091
          0.7 -48.274 0.133 -161.802 0.144 -22.091 0.659 39.633
          0.659 39.633 0.144 -22.091 0.133 -161.802 0.7 -48.274
          0.144 -22.091 0.659 39.633 0.7 -48.274 0.133 -161.802
2350.701 0.133 -161.825 0.699 -48.296 0.66 39.612 0.144 -22.145
          0.699 -48.296 0.133 -161.825 0.144 -22.145 0.66 39.612
          0.66 39.612 0.144 -22.145 0.133 -161.825 0.699 -48.296
          0.144 -22.145 0.66 39.612 0.699 -48.296 0.133 -161.825
2352.305 0.133 -161.848 0.699 -48.318 0.66 39.591 0.144 -22.198
          0.699 -48.318 0.133 -161.848 0.144 -22.198 0.66 39.591
          0.66 39.591 0.144 -22.198 0.133 -161.848 0.699 -48.318
          0.144 -22.198 0.66 39.591 0.699 -48.318 0.133 -161.848
2353.908 0.133 -161.87 0.699 -48.34 0.66 39.57 0.144 -22.251
          0.699 -48.34 0.133 -161.87 0.144 -22.251 0.66 39.57
          0.66 39.57 0.144 -22.251 0.133 -161.87 0.699 -48.34
          0.144 -22.251 0.66 39.57 0.699 -48.34 0.133 -161.87
2355.511 0.133 -161.893 0.699 -48.363 0.66 39.55 0.144 -22.305
          0.699 -48.363 0.133 -161.893 0.144 -22.305 0.66 39.55
          0.66 39.55 0.144 -22.305 0.133 -161.893 0.699 -48.363
          0.144 -22.305 0.66 39.55 0.699 -48.363 0.133 -161.893
2357.114 0.133 -161.915 0.699 -48.385 0.661 39.529 0.144 -22.358
          0.699 -48.385 0.133 -161.915 0.144 -22.358 0.661 39.529
          0.661 39.529 0.144 -22.358 0.133 -161.915 0.699 -48.385
          0.144 -22.358 0.661 39.529 0.699 -48.385 0.133 -161.915
2358.717 0.133 -161.938 0.698 -48.407 0.661 39.508 0.144 -22.411
          0.698 -48.407 0.133 -161.938 0.144 -22.411 0.661 39.508
          0.661 39.508 0.144 -22.411 0.133 -161.938 0.698 -48.407
          0.144 -22.411 0.661 39.508 0.698 -48.407 0.133 -161.938
2360.321 0.133 -161.96 0.698 -48.43 0.661 39.487 0.144 -22.465
          0.698 -48.43 0.133 -161.96 0.144 -22.465 0.661 39.487
          0.661 39.487 0.144 -22.465 0.133 -161.96 0.698 -48.43
          0.144 -22.465 0.661 39.487 0.698 -48.43 0.133 -161.96
2361.924 0.133 -161.983 0.698 -48.452 0.661 39.467 0.144 -22.518
          0.698 -48.452 0.133 -161.983 0.144 -22.518 0.661 39.467
          0.661 39.467 0.144 -22.518 0.133 -161.983 0.698 -48.452
          0.144 -22.518 0.661 39.467 0.698 -48.452 0.133 -161.983
2363.527 0.133 -162.005 0.698 -48.474 0.661 39.446 0.144 -22.571
          0.698 -48.474 0.133 -162.005 0.144 -22.571 0.661 39.446
          0.661 39.446 0.144 -22.571 0.133 -162.005 0.698 -48.474
          0.144 -22.571 0.661 39.446 0.698 -48.474 0.133 -162.005
2365.13 0.133 -162.027 0.698 -48.496 0.662 39.425 0.144 -22.624
          0.698 -48.496 0.133 -162.027 0.144 -22.624 0.662 39.425
          0.662 39.425 0.144 -22.624 0.133 -162.027 0.698 -48.496
          0.144 -22.624 0.662 39.425 0.698 -48.496 0.133 -162.027
2366.733 0.133 -162.05 0.697 -48.518 0.662 39.404 0.144 -22.677
          0.697 -48.518 0.133 -162.05 0.144 -22.677 0.662 39.404
          0.662 39.404 0.144 -22.677 0.133 -162.05 0.697 -48.518
          0.144 -22.677 0.662 39.404 0.697 -48.518 0.133 -162.05
2368.337 0.133 -162.072 0.697 -48.541 0.662 39.384 0.144 -22.73
          0.697 -48.541 0.133 -162.072 0.144 -22.73 0.662 39.384
          0.662 39.384 0.144 -22.73 0.133 -162.072 0.697 -48.541
          0.144 -22.73 0.662 39.384 0.697 -48.541 0.133 -162.072
2369.94 0.133 -162.094 0.697 -48.563 0.662 39.363 0.144 -22.784
          0.697 -48.563 0.133 -162.094 0.144 -22.784 0.662 39.363
          0.662 39.363 0.144 -22.784 0.133 -162.094 0.697 -48.563
          0.144 -22.784 0.662 39.363 0.697 -48.563 0.133 -162.094
2371.543 0.133 -162.116 0.697 -48.585 0.663 39.342 0.144 -22.837
          0.697 -48.585 0.133 -162.116 0.144 -22.837 0.663 39.342
          0.663 39.342 0.144 -22.837 0.133 -162.116 0.697 -48.585
          0.144 -22.837 0.663 39.342 0.697 -48.585 0.133 -162.116
2373.146 0.133 -162.138 0.697 -48.607 0.663 39.322 0.144 -22.89
          0.697 -48.607 0.133 -162.138 0.144 -22.89 0.663 39.322
          0.663 39.322 0.144 -22.89 0.133 -162.138 0.697 -48.607
          0.144 -22.89 0.663 39.322 0.697 -48.607 0.133 -162.138
2374.749 0.133 -162.16 0.696 -48.629 0.663 39.301 0.144 -22.943
          0.696 -48.629 0.133 -162.16 0.144 -22.943 0.663 39.301
          0.663 39.301 0.144 -22.943 0.133 -162.16 0.696 -48.629
          0.144 -22.943 0.663 39.301 0.696 -48.629 0.133 -162.16
2376.353 0.133 -162.182 0.696 -48.651 0.663 39.28 0.144 -22.996
          0.696 -48.651 0.133 -162.182 0.144 -22.996 0.663 39.28
          0.663 39.28 0.144 -22.996 0.133 -162.182 0.696 -48.651
          0.144 -22.996 0.663 39.28 0.696 -48.651 0.133 -162.182
2377.956 0.133 -162.204 0.696 -48.674 0.663 39.26 0.144 -23.049
          0.696 -48.674 0.133 -162.204 0.144 -23.049 0.663 39.26
          0.663 39.26 0.144 -23.049 0.133 -162.204 0.696 -48.674
          0.144 -23.049 0.663 39.26 0.696 -48.674 0.133 -162.204
2379.559 0.132 -162.226 0.696 -48.696 0.664 39.239 0.144 -23.102
          0.696 -48.696 0.132 -162.226 0.144 -23.102 0.664 39.239
          0.664 39.239 0.144 -23.102 0.132 -162.226 0.696 -48.696
          0.144 -23.102 0.664 39.239 0.696 -48.696 0.132 -162.226
2381.162 0.132 -162.248 0.695 -48.718 0.664 39.219 0.144 -23.155
          0.695 -48.718 0.132 -162.248 0.144 -23.155 0.664 39.219
          0.664 39.219 0.144 -23.155 0.132 -162.248 0.695 -48.718
          0.144 -23.155 0.664 39.219 0.695 -48.718 0.132 -162.248
2382.766 0.132 -162.27 0.695 -48.74 0.664 39.198 0.144 -23.207
          0.695 -48.74 0.132 -162.27 0.144 -23.207 0.664 39.198
          0.664 39.198 0.144 -23.207 0.132 -162.27 0.695 -48.74
          0.144 -23.207 0.664 39.198 0.695 -48.74 0.132 -162.27
2384.369 0.132 -162.292 0.695 -48.762 0.664 39.177 0.144 -23.26
          0.695 -48.762 0.132 -162.292 0.144 -23.26 0.664 39.177
          0.664 39.177 0.144 -23.26 0.132 -162.292 0.695 -48.762
          0.144 -23.26 0.664 39.177 0.695 -48.762 0.132 -162.292
2385.972 0.132 -162.313 0.695 -48.784 0.665 39.157 0.144 -23.313
          0.695 -48.784 0.132 -162.313 0.144 -23.313 0.665 39.157
          0.665 39.157 0.144 -23.313 0.132 -162.313 0.695 -48.784
          0.144 -23.313 0.665 39.157 0.695 -48.784 0.132 -162.313
2387.575 0.132 -162.335 0.695 -48.806 0.665 39.136 0.144 -23.366
          0.695 -48.806 0.132 -162.335 0.144 -23.366 0.665 39.136
          0.665 39.136 0.144 -23.366 0.132 -162.335 0.695 -48.806
          0.144 -23.366 0.665 39.136 0.695 -48.806 0.132 -162.335
2389.178 0.132 -162.357 0.694 -48.828 0.665 39.116 0.144 -23.419
          0.694 -48.828 0.132 -162.357 0.144 -23.419 0.665 39.116
          0.665 39.116 0.144 -23.419 0.132 -162.357 0.694 -48.828
          0.144 -23.419 0.665 39.116 0.694 -48.828 0.132 -162.357
2390.782 0.132 -162.378 0.694 -48.85 0.665 39.095 0.144 -23.472
          0.694 -48.85 0.132 -162.378 0.144 -23.472 0.665 39.095
          0.665 39.095 0.144 -23.472 0.132 -162.378 0.694 -48.85
          0.144 -23.472 0.665 39.095 0.694 -48.85 0.132 -162.378
2392.385 0.132 -162.4 0.694 -48.872 0.665 39.075 0.144 -23.524
          0.694 -48.872 0.132 -162.4 0.144 -23.524 0.665 39.075
          0.665 39.075 0.144 -23.524 0.132 -162.4 0.694 -48.872
          0.144 -23.524 0.665 39.075 0.694 -48.872 0.132 -162.4
2393.988 0.132 -162.421 0.694 -48.894 0.666 39.054 0.144 -23.577
          0.694 -48.894 0.132 -162.421 0.144 -23.577 0.666 39.054
          0.666 39.054 0.144 -23.577 0.132 -162.421 0.694 -48.894
          0.144 -23.577 0.666 39.054 0.694 -48.894 0.132 -162.421
2395.591 0.132 -162.443 0.694 -48.917 0.666 39.034 0.144 -23.63
          0.694 -48.917 0.132 -162.443 0.144 -23.63 0.666 39.034
          0.666 39.034 0.144 -23.63 0.132 -162.443 0.694 -48.917
          0.144 -23.63 0.666 39.034 0.694 -48.917 0.132 -162.443
2397.194 0.132 -162.464 0.693 -48.939 0.666 39.013 0.144 -23.683
          0.693 -48.939 0.132 -162.464 0.144 -23.683 0.666 39.013
          0.666 39.013 0.144 -23.683 0.132 -162.464 0.693 -48.939
          0.144 -23.683 0.666 39.013 0.693 -48.939 0.132 -162.464
2398.798 0.132 -162.485 0.693 -48.961 0.666 38.993 0.144 -23.735
          0.693 -48.961 0.132 -162.485 0.144 -23.735 0.666 38.993
          0.666 38.993 0.144 -23.735 0.132 -162.485 0.693 -48.961
          0.144 -23.735 0.666 38.993 0.693 -48.961 0.132 -162.485
2400.401 0.132 -162.507 0.693 -48.983 0.667 38.972 0.144 -23.788
          0.693 -48.983 0.132 -162.507 0.144 -23.788 0.667 38.972
          0.667 38.972 0.144 -23.788 0.132 -162.507 0.693 -48.983
          0.144 -23.788 0.667 38.972 0.693 -48.983 0.132 -162.507
2402.004 0.132 -162.528 0.693 -49.005 0.667 38.952 0.144 -23.841
          0.693 -49.005 0.132 -162.528 0.144 -23.841 0.667 38.952
          0.667 38.952 0.144 -23.841 0.132 -162.528 0.693 -49.005
          0.144 -23.841 0.667 38.952 0.693 -49.005 0.132 -162.528
2403.607 0.132 -162.549 0.693 -49.027 0.667 38.931 0.144 -23.893
          0.693 -49.027 0.132 -162.549 0.144 -23.893 0.667 38.931
          0.667 38.931 0.144 -23.893 0.132 -162.549 0.693 -49.027
          0.144 -23.893 0.667 38.931 0.693 -49.027 0.132 -162.549
2405.21 0.132 -162.57 0.692 -49.049 0.667 38.911 0.144 -23.946
          0.692 -49.049 0.132 -162.57 0.144 -23.946 0.667 38.911
          0.667 38.911 0.144 -23.946 0.132 -162.57 0.692 -49.049
          0.144 -23.946 0.667 38.911 0.692 -49.049 0.132 -162.57
2406.814 0.132 -162.591 0.692 -49.071 0.667 38.891 0.144 -23.998
          0.692 -49.071 0.132 -162.591 0.144 -23.998 0.667 38.891
          0.667 38.891 0.144 -23.998 0.132 -162.591 0.692 -49.071
          0.144 -23.998 0.667 38.891 0.692 -49.071 0.132 -162.591
2408.417 0.132 -162.612 0.692 -49.093 0.668 38.87 0.144 -24.051
          0.692 -49.093 0.132 -162.612 0.144 -24.051 0.668 38.87
          0.668 38.87 0.144 -24.051 0.132 -162.612 0.692 -49.093
          0.144 -24.051 0.668 38.87 0.692 -49.093 0.132 -162.612
2410.02 0.132 -162.633 0.692 -49.115 0.668 38.85 0.144 -24.103
          0.692 -49.115 0.132 -162.633 0.144 -24.103 0.668 38.85
          0.668 38.85 0.144 -24.103 0.132 -162.633 0.692 -49.115
          0.144 -24.103 0.668 38.85 0.692 -49.115 0.132 -162.633
2411.623 0.132 -162.654 0.692 -49.136 0.668 38.829 0.144 -24.156
          0.692 -49.136 0.132 -162.654 0.144 -24.156 0.668 38.829
          0.668 38.829 0.144 -24.156 0.132 -162.654 0.692 -49.136
          0.144 -24.156 0.668 38.829 0.692 -49.136 0.132 -162.654
2413.226 0.131 -162.675 0.691 -49.158 0.668 38.809 0.144 -24.208
          0.691 -49.158 0.131 -162.675 0.144 -24.208 0.668 38.809
          0.668 38.809 0.144 -24.208 0.131 -162.675 0.691 -49.158
          0.144 -24.208 0.668 38.809 0.691 -49.158 0.131 -162.675
2414.83 0.131 -162.696 0.691 -49.18 0.669 38.789 0.144 -24.261
          0.691 -49.18 0.131 -162.696 0.144 -24.261 0.669 38.789
          0.669 38.789 0.144 -24.261 0.131 -162.696 0.691 -49.18
          0.144 -24.261 0.669 38.789 0.691 -49.18 0.131 -162.696
2416.433 0.131 -162.717 0.691 -49.202 0.669 38.768 0.144 -24.313
          0.691 -49.202 0.131 -162.717 0.144 -24.313 0.669 38.768
          0.669 38.768 0.144 -24.313 0.131 -162.717 0.691 -49.202
          0.144 -24.313 0.669 38.768 0.691 -49.202 0.131 -162.717
2418.036 0.131 -162.738 0.691 -49.224 0.669 38.748 0.144 -24.366
          0.691 -49.224 0.131 -162.738 0.144 -24.366 0.669 38.748
          0.669 38.748 0.144 -24.366 0.131 -162.738 0.691 -49.224
          0.144 -24.366 0.669 38.748 0.691 -49.224 0.131 -162.738
2419.639 0.131 -162.758 0.691 -49.246 0.669 38.728 0.144 -24.418
          0.691 -49.246 0.131 -162.758 0.144 -24.418 0.669 38.728
          0.669 38.728 0.144 -24.418 0.131 -162.758 0.691 -49.246
          0.144 -24.418 0.669 38.728 0.691 -49.246 0.131 -162.758
2421.242 0.131 -162.779 0.69 -49.268 0.669 38.707 0.144 -24.47
          0.69 -49.268 0.131 -162.779 0.144 -24.47 0.669 38.707
          0.669 38.707 0.144 -24.47 0.131 -162.779 0.69 -49.268
          0.144 -24.47 0.669 38.707 0.69 -49.268 0.131 -162.779
2422.846 0.131 -162.8 0.69 -49.29 0.67 38.687 0.144 -24.523
          0.69 -49.29 0.131 -162.8 0.144 -24.523 0.67 38.687
          0.67 38.687 0.144 -24.523 0.131 -162.8 0.69 -49.29
          0.144 -24.523 0.67 38.687 0.69 -49.29 0.131 -162.8
2424.449 0.131 -162.82 0.69 -49.312 0.67 38.667 0.144 -24.575
          0.69 -49.312 0.131 -162.82 0.144 -24.575 0.67 38.667
          0.67 38.667 0.144 -24.575 0.131 -162.82 0.69 -49.312
          0.144 -24.575 0.67 38.667 0.69 -49.312 0.131 -162.82
2426.052 0.131 -162.841 0.69 -49.334 0.67 38.646 0.144 -24.627
          0.69 -49.334 0.131 -162.841 0.144 -24.627 0.67 38.646
          0.67 38.646 0.144 -24.627 0.131 -162.841 0.69 -49.334
          0.144 -24.627 0.67 38.646 0.69 -49.334 0.131 -162.841
2427.655 0.131 -162.861 0.69 -49.355 0.67 38.626 0.144 -24.679
          0.69 -49.355 0.131 -162.861 0.144 -24.679 0.67 38.626
          0.67 38.626 0.144 -24.679 0.131 -162.861 0.69 -49.355
          0.144 -24.679 0.67 38.626 0.69 -49.355 0.131 -162.861
2429.259 0.131 -162.882 0.689 -49.377 0.67 38.606 0.144 -24.732
          0.689 -49.377 0.131 -162.882 0.144 -24.732 0.67 38.606
          0.67 38.606 0.144 -24.732 0.131 -162.882 0.689 -49.377
          0.144 -24.732 0.67 38.606 0.689 -49.377 0.131 -162.882
2430.862 0.131 -162.902 0.689 -49.399 0.671 38.585 0.144 -24.784
          0.689 -49.399 0.131 -162.902 0.144 -24.784 0.671 38.585
          0.671 38.585 0.144 -24.784 0.131 -162.902 0.689 -49.399
          0.144 -24.784 0.671 38.585 0.689 -49.399 0.131 -162.902
2432.465 0.131 -162.923 0.689 -49.421 0.671 38.565 0.144 -24.836
          0.689 -49.421 0.131 -162.923 0.144 -24.836 0.671 38.565
          0.671 38.565 0.144 -24.836 0.131 -162.923 0.689 -49.421
          0.144 -24.836 0.671 38.565 0.689 -49.421 0.131 -162.923
2434.068 0.131 -162.943 0.689 -49.443 0.671 38.545 0.144 -24.888
          0.689 -49.443 0.131 -162.943 0.144 -24.888 0.671 38.545
          0.671 38.545 0.144 -24.888 0.131 -162.943 0.689 -49.443
          0.144 -24.888 0.671 38.545 0.689 -49.443 0.131 -162.943
2435.671 0.131 -162.963 0.689 -49.465 0.671 38.525 0.144 -24.94
          0.689 -49.465 0.131 -162.963 0.144 -24.94 0.671 38.525
          0.671 38.525 0.144 -24.94 0.131 -162.963 0.689 -49.465
          0.144 -24.94 0.671 38.525 0.689 -49.465 0.131 -162.963
2437.275 0.131 -162.984 0.688 -49.486 0.672 38.505 0.144 -24.993
          0.688 -49.486 0.131 -162.984 0.144 -24.993 0.672 38.505
          0.672 38.505 0.144 -24.993 0.131 -162.984 0.688 -49.486
          0.144 -24.993 0.672 38.505 0.688 -49.486 0.131 -162.984
2438.878 0.131 -163.004 0.688 -49.508 0.672 38.484 0.144 -25.045
          0.688 -49.508 0.131 -163.004 0.144 -25.045 0.672 38.484
          0.672 38.484 0.144 -25.045 0.131 -163.004 0.688 -49.508
          0.144 -25.045 0.672 38.484 0.688 -49.508 0.131 -163.004
2440.481 0.131 -163.024 0.688 -49.53 0.672 38.464 0.144 -25.097
          0.688 -49.53 0.131 -163.024 0.144 -25.097 0.672 38.464
          0.672 38.464 0.144 -25.097 0.131 -163.024 0.688 -49.53
          0.144 -25.097 0.672 38.464 0.688 -49.53 0.131 -163.024
2442.084 0.131 -163.044 0.688 -49.552 0.672 38.444 0.144 -25.149
          0.688 -49.552 0.131 -163.044 0.144 -25.149 0.672 38.444
          0.672 38.444 0.144 -25.149 0.131 -163.044 0.688 -49.552
          0.144 -25.149 0.672 38.444 0.688 -49.552 0.131 -163.044
2443.687 0.131 -163.064 0.688 -49.574 0.672 38.424 0.144 -25.201
          0.688 -49.574 0.131 -163.064 0.144 -25.201 0.672 38.424
          0.672 38.424 0.144 -25.201 0.131 -163.064 0.688 -49.574
          0.144 -25.201 0.672 38.424 0.688 -49.574 0.131 -163.064
2445.291 0.131 -163.084 0.687 -49.595 0.673 38.404 0.144 -25.253
          0.687 -49.595 0.131 -163.084 0.144 -25.253 0.673 38.404
          0.673 38.404 0.144 -25.253 0.131 -163.084 0.687 -49.595
          0.144 -25.253 0.673 38.404 0.687 -49.595 0.131 -163.084
2446.894 0.13 -163.104 0.687 -49.617 0.673 38.383 0.144 -25.305
          0.687 -49.617 0.13 -163.104 0.144 -25.305 0.673 38.383
          0.673 38.383 0.144 -25.305 0.13 -163.104 0.687 -49.617
          0.144 -25.305 0.673 38.383 0.687 -49.617 0.13 -163.104
2448.497 0.13 -163.124 0.687 -49.639 0.673 38.363 0.144 -25.357
          0.687 -49.639 0.13 -163.124 0.144 -25.357 0.673 38.363
          0.673 38.363 0.144 -25.357 0.13 -163.124 0.687 -49.639
          0.144 -25.357 0.673 38.363 0.687 -49.639 0.13 -163.124
2450.1 0.13 -163.144 0.687 -49.661 0.673 38.343 0.144 -25.409
          0.687 -49.661 0.13 -163.144 0.144 -25.409 0.673 38.343
          0.673 38.343 0.144 -25.409 0.13 -163.144 0.687 -49.661
          0.144 -25.409 0.673 38.343 0.687 -49.661 0.13 -163.144
2451.703 0.13 -163.163 0.687 -49.682 0.674 38.323 0.144 -25.461
          0.687 -49.682 0.13 -163.163 0.144 -25.461 0.674 38.323
          0.674 38.323 0.144 -25.461 0.13 -163.163 0.687 -49.682
          0.144 -25.461 0.674 38.323 0.687 -49.682 0.13 -163.163
2453.307 0.13 -163.183 0.686 -49.704 0.674 38.303 0.144 -25.512
          0.686 -49.704 0.13 -163.183 0.144 -25.512 0.674 38.303
          0.674 38.303 0.144 -25.512 0.13 -163.183 0.686 -49.704
          0.144 -25.512 0.674 38.303 0.686 -49.704 0.13 -163.183
2454.91 0.13 -163.203 0.686 -49.726 0.674 38.283 0.144 -25.564
          0.686 -49.726 0.13 -163.203 0.144 -25.564 0.674 38.283
          0.674 38.283 0.144 -25.564 0.13 -163.203 0.686 -49.726
          0.144 -25.564 0.674 38.283 0.686 -49.726 0.13 -163.203
2456.513 0.13 -163.223 0.686 -49.747 0.674 38.263 0.144 -25.616
          0.686 -49.747 0.13 -163.223 0.144 -25.616 0.674 38.263
          0.674 38.263 0.144 -25.616 0.13 -163.223 0.686 -49.747
          0.144 -25.616 0.674 38.263 0.686 -49.747 0.13 -163.223
2458.116 0.13 -163.242 0.686 -49.769 0.674 38.243 0.144 -25.668
          0.686 -49.769 0.13 -163.242 0.144 -25.668 0.674 38.243
          0.674 38.243 0.144 -25.668 0.13 -163.242 0.686 -49.769
          0.144 -25.668 0.674 38.243 0.686 -49.769 0.13 -163.242
2459.719 0.13 -163.262 0.686 -49.791 0.675 38.223 0.144 -25.72
          0.686 -49.791 0.13 -163.262 0.144 -25.72 0.675 38.223
          0.675 38.223 0.144 -25.72 0.13 -163.262 0.686 -49.791
          0.144 -25.72 0.675 38.223 0.686 -49.791 0.13 -163.262
2461.323 0.13 -163.281 0.685 -49.813 0.675 38.203 0.144 -25.772
          0.685 -49.813 0.13 -163.281 0.144 -25.772 0.675 38.203
          0.675 38.203 0.144 -25.772 0.13 -163.281 0.685 -49.813
          0.144 -25.772 0.675 38.203 0.685 -49.813 0.13 -163.281
2462.926 0.13 -163.301 0.685 -49.834 0.675 38.182 0.144 -25.823
          0.685 -49.834 0.13 -163.301 0.144 -25.823 0.675 38.182
          0.675 38.182 0.144 -25.823 0.13 -163.301 0.685 -49.834
          0.144 -25.823 0.675 38.182 0.685 -49.834 0.13 -163.301
2464.529 0.13 -163.32 0.685 -49.856 0.675 38.162 0.144 -25.875
          0.685 -49.856 0.13 -163.32 0.144 -25.875 0.675 38.162
          0.675 38.162 0.144 -25.875 0.13 -163.32 0.685 -49.856
          0.144 -25.875 0.675 38.162 0.685 -49.856 0.13 -163.32
2466.132 0.13 -163.34 0.685 -49.878 0.675 38.142 0.144 -25.927
          0.685 -49.878 0.13 -163.34 0.144 -25.927 0.675 38.142
          0.675 38.142 0.144 -25.927 0.13 -163.34 0.685 -49.878
          0.144 -25.927 0.675 38.142 0.685 -49.878 0.13 -163.34
2467.735 0.13 -163.359 0.685 -49.899 0.676 38.122 0.144 -25.978
          0.685 -49.899 0.13 -163.359 0.144 -25.978 0.676 38.122
          0.676 38.122 0.144 -25.978 0.13 -163.359 0.685 -49.899
          0.144 -25.978 0.676 38.122 0.685 -49.899 0.13 -163.359
2469.339 0.13 -163.378 0.684 -49.921 0.676 38.102 0.144 -26.03
          0.684 -49.921 0.13 -163.378 0.144 -26.03 0.676 38.102
          0.676 38.102 0.144 -26.03 0.13 -163.378 0.684 -49.921
          0.144 -26.03 0.676 38.102 0.684 -49.921 0.13 -163.378
2470.942 0.13 -163.398 0.684 -49.942 0.676 38.082 0.144 -26.082
          0.684 -49.942 0.13 -163.398 0.144 -26.082 0.676 38.082
          0.676 38.082 0.144 -26.082 0.13 -163.398 0.684 -49.942
          0.144 -26.082 0.676 38.082 0.684 -49.942 0.13 -163.398
2472.545 0.13 -163.417 0.684 -49.964 0.676 38.062 0.145 -26.133
          0.684 -49.964 0.13 -163.417 0.145 -26.133 0.676 38.062
          0.676 38.062 0.145 -26.133 0.13 -163.417 0.684 -49.964
          0.145 -26.133 0.676 38.062 0.684 -49.964 0.13 -163.417
2474.148 0.13 -163.436 0.684 -49.986 0.676 38.042 0.145 -26.185
          0.684 -49.986 0.13 -163.436 0.145 -26.185 0.676 38.042
          0.676 38.042 0.145 -26.185 0.13 -163.436 0.684 -49.986
          0.145 -26.185 0.676 38.042 0.684 -49.986 0.13 -163.436
2475.752 0.13 -163.455 0.684 -50.007 0.677 38.022 0.145 -26.237
          0.684 -50.007 0.13 -163.455 0.145 -26.237 0.677 38.022
          0.677 38.022 0.145 -26.237 0.13 -163.455 0.684 -50.007
          0.145 -26.237 0.677 38.022 0.684 -50.007 0.13 -163.455
2477.355 0.129 -163.474 0.683 -50.029 0.677 38.002 0.145 -26.288
          0.683 -50.029 0.129 -163.474 0.145 -26.288 0.677 38.002
          0.677 38.002 0.145 -26.288 0.129 -163.474 0.683 -50.029
          0.145 -26.288 0.677 38.002 0.683 -50.029 0.129 -163.474
2478.958 0.129 -163.493 0.683 -50.05 0.677 37.983 0.145 -26.34
          0.683 -50.05 0.129 -163.493 0.145 -26.34 0.677 37.983
          0.677 37.983 0.145 -26.34 0.129 -163.493 0.683 -50.05
          0.145 -26.34 0.677 37.983 0.683 -50.05 0.129 -163.493
2480.561 0.129 -163.512 0.683 -50.072 0.677 37.963 0.145 -26.391
          0.683 -50.072 0.129 -163.512 0.145 -26.391 0.677 37.963
          0.677 37.963 0.145 -26.391 0.129 -163.512 0.683 -50.072
          0.145 -26.391 0.677 37.963 0.683 -50.072 0.129 -163.512
2482.164 0.129 -163.531 0.683 -50.094 0.678 37.943 0.145 -26.443
          0.683 -50.094 0.129 -163.531 0.145 -26.443 0.678 37.943
          0.678 37.943 0.145 -26.443 0.129 -163.531 0.683 -50.094
          0.145 -26.443 0.678 37.943 0.683 -50.094 0.129 -163.531
2483.768 0.129 -163.55 0.683 -50.115 0.678 37.923 0.145 -26.494
          0.683 -50.115 0.129 -163.55 0.145 -26.494 0.678 37.923
          0.678 37.923 0.145 -26.494 0.129 -163.55 0.683 -50.115
          0.145 -26.494 0.678 37.923 0.683 -50.115 0.129 -163.55
2485.371 0.129 -163.569 0.682 -50.137 0.678 37.903 0.145 -26.546
          0.682 -50.137 0.129 -163.569 0.145 -26.546 0.678 37.903
          0.678 37.903 0.145 -26.546 0.129 -163.569 0.682 -50.137
          0.145 -26.546 0.678 37.903 0.682 -50.137 0.129 -163.569
2486.974 0.129 -163.587 0.682 -50.158 0.678 37.883 0.145 -26.597
          0.682 -50.158 0.129 -163.587 0.145 -26.597 0.678 37.883
          0.678 37.883 0.145 -26.597 0.129 -163.587 0.682 -50.158
          0.145 -26.597 0.678 37.883 0.682 -50.158 0.129 -163.587
2488.577 0.129 -163.606 0.682 -50.18 0.678 37.863 0.145 -26.648
          0.682 -50.18 0.129 -163.606 0.145 -26.648 0.678 37.863
          0.678 37.863 0.145 -26.648 0.129 -163.606 0.682 -50.18
          0.145 -26.648 0.678 37.863 0.682 -50.18 0.129 -163.606
2490.18 0.129 -163.625 0.682 -50.201 0.679 37.843 0.145 -26.7
          0.682 -50.201 0.129 -163.625 0.145 -26.7 0.679 37.843
          0.679 37.843 0.145 -26.7 0.129 -163.625 0.682 -50.201
          0.145 -26.7 0.679 37.843 0.682 -50.201 0.129 -163.625
2491.784 0.129 -163.643 0.682 -50.223 0.679 37.823 0.145 -26.751
          0.682 -50.223 0.129 -163.643 0.145 -26.751 0.679 37.823
          0.679 37.823 0.145 -26.751 0.129 -163.643 0.682 -50.223
          0.145 -26.751 0.679 37.823 0.682 -50.223 0.129 -163.643
2493.387 0.129 -163.662 0.681 -50.244 0.679 37.803 0.145 -26.802
          0.681 -50.244 0.129 -163.662 0.145 -26.802 0.679 37.803
          0.679 37.803 0.145 -26.802 0.129 -163.662 0.681 -50.244
          0.145 -26.802 0.679 37.803 0.681 -50.244 0.129 -163.662
2494.99 0.129 -163.681 0.681 -50.266 0.679 37.784 0.145 -26.854
          0.681 -50.266 0.129 -163.681 0.145 -26.854 0.679 37.784
          0.679 37.784 0.145 -26.854 0.129 -163.681 0.681 -50.266
          0.145 -26.854 0.679 37.784 0.681 -50.266 0.129 -163.681
2496.593 0.129 -163.699 0.681 -50.287 0.679 37.764 0.145 -26.905
          0.681 -50.287 0.129 -163.699 0.145 -26.905 0.679 37.764
          0.679 37.764 0.145 -26.905 0.129 -163.699 0.681 -50.287
          0.145 -26.905 0.679 37.764 0.681 -50.287 0.129 -163.699
2498.196 0.129 -163.718 0.681 -50.309 0.68 37.744 0.145 -26.956
          0.681 -50.309 0.129 -163.718 0.145 -26.956 0.68 37.744
          0.68 37.744 0.145 -26.956 0.129 -163.718 0.681 -50.309
          0.145 -26.956 0.68 37.744 0.681 -50.309 0.129 -163.718
2499.8 0.129 -163.736 0.681 -50.33 0.68 37.724 0.145 -27.007
          0.681 -50.33 0.129 -163.736 0.145 -27.007 0.68 37.724
          0.68 37.724 0.145 -27.007 0.129 -163.736 0.681 -50.33
          0.145 -27.007 0.68 37.724 0.681 -50.33 0.129 -163.736
2501.403 0.129 -163.754 0.68 -50.352 0.68 37.704 0.145 -27.059
          0.68 -50.352 0.129 -163.754 0.145 -27.059 0.68 37.704
          0.68 37.704 0.145 -27.059 0.129 -163.754 0.68 -50.352
          0.145 -27.059 0.68 37.704 0.68 -50.352 0.129 -163.754
2503.006 0.129 -163.773 0.68 -50.373 0.68 37.685 0.145 -27.11
          0.68 -50.373 0.129 -163.773 0.145 -27.11 0.68 37.685
          0.68 37.685 0.145 -27.11 0.129 -163.773 0.68 -50.373
          0.145 -27.11 0.68 37.685 0.68 -50.373 0.129 -163.773
2504.609 0.129 -163.791 0.68 -50.395 0.68 37.665 0.145 -27.161
          0.68 -50.395 0.129 -163.791 0.145 -27.161 0.68 37.665
          0.68 37.665 0.145 -27.161 0.129 -163.791 0.68 -50.395
          0.145 -27.161 0.68 37.665 0.68 -50.395 0.129 -163.791
2506.212 0.129 -163.809 0.68 -50.416 0.681 37.645 0.145 -27.212
          0.68 -50.416 0.129 -163.809 0.145 -27.212 0.681 37.645
          0.681 37.645 0.145 -27.212 0.129 -163.809 0.68 -50.416
          0.145 -27.212 0.681 37.645 0.68 -50.416 0.129 -163.809
2507.816 0.129 -163.827 0.68 -50.437 0.681 37.625 0.145 -27.263
          0.68 -50.437 0.129 -163.827 0.145 -27.263 0.681 37.625
          0.681 37.625 0.145 -27.263 0.129 -163.827 0.68 -50.437
          0.145 -27.263 0.681 37.625 0.68 -50.437 0.129 -163.827
2509.419 0.128 -163.845 0.679 -50.459 0.681 37.606 0.145 -27.314
          0.679 -50.459 0.128 -163.845 0.145 -27.314 0.681 37.606
          0.681 37.606 0.145 -27.314 0.128 -163.845 0.679 -50.459
          0.145 -27.314 0.681 37.606 0.679 -50.459 0.128 -163.845
2511.022 0.128 -163.863 0.679 -50.48 0.681 37.586 0.145 -27.365
          0.679 -50.48 0.128 -163.863 0.145 -27.365 0.681 37.586
          0.681 37.586 0.145 -27.365 0.128 -163.863 0.679 -50.48
          0.145 -27.365 0.681 37.586 0.679 -50.48 0.128 -163.863
2512.625 0.128 -163.881 0.679 -50.502 0.682 37.566 0.145 -27.417
          0.679 -50.502 0.128 -163.881 0.145 -27.417 0.682 37.566
          0.682 37.566 0.145 -27.417 0.128 -163.881 0.679 -50.502
          0.145 -27.417 0.682 37.566 0.679 -50.502 0.128 -163.881
2514.228 0.128 -163.899 0.679 -50.523 0.682 37.546 0.145 -27.468
          0.679 -50.523 0.128 -163.899 0.145 -27.468 0.682 37.546
          0.682 37.546 0.145 -27.468 0.128 -163.899 0.679 -50.523
          0.145 -27.468 0.682 37.546 0.679 -50.523 0.128 -163.899
2515.832 0.128 -163.917 0.679 -50.544 0.682 37.527 0.145 -27.519
          0.679 -50.544 0.128 -163.917 0.145 -27.519 0.682 37.527
          0.682 37.527 0.145 -27.519 0.128 -163.917 0.679 -50.544
          0.145 -27.519 0.682 37.527 0.679 -50.544 0.128 -163.917
2517.435 0.128 -163.935 0.678 -50.566 0.682 37.507 0.145 -27.57
          0.678 -50.566 0.128 -163.935 0.145 -27.57 0.682 37.507
          0.682 37.507 0.145 -27.57 0.128 -163.935 0.678 -50.566
          0.145 -27.57 0.682 37.507 0.678 -50.566 0.128 -163.935
2519.038 0.128 -163.953 0.678 -50.587 0.682 37.487 0.145 -27.621
          0.678 -50.587 0.128 -163.953 0.145 -27.621 0.682 37.487
          0.682 37.487 0.145 -27.621 0.128 -163.953 0.678 -50.587
          0.145 -27.621 0.682 37.487 0.678 -50.587 0.128 -163.953
2520.641 0.128 -163.971 0.678 -50.609 0.683 37.468 0.145 -27.672
          0.678 -50.609 0.128 -163.971 0.145 -27.672 0.683 37.468
          0.683 37.468 0.145 -27.672 0.128 -163.971 0.678 -50.609
          0.145 -27.672 0.683 37.468 0.678 -50.609 0.128 -163.971
2522.244 0.128 -163.988 0.678 -50.63 0.683 37.448 0.145 -27.722
          0.678 -50.63 0.128 -163.988 0.145 -27.722 0.683 37.448
          0.683 37.448 0.145 -27.722 0.128 -163.988 0.678 -50.63
          0.145 -27.722 0.683 37.448 0.678 -50.63 0.128 -163.988
2523.848 0.128 -164.006 0.678 -50.651 0.683 37.428 0.145 -27.773
          0.678 -50.651 0.128 -164.006 0.145 -27.773 0.683 37.428
          0.683 37.428 0.145 -27.773 0.128 -164.006 0.678 -50.651
          0.145 -27.773 0.683 37.428 0.678 -50.651 0.128 -164.006
2525.451 0.128 -164.024 0.677 -50.673 0.683 37.409 0.145 -27.824
          0.677 -50.673 0.128 -164.024 0.145 -27.824 0.683 37.409
          0.683 37.409 0.145 -27.824 0.128 -164.024 0.677 -50.673
          0.145 -27.824 0.683 37.409 0.677 -50.673 0.128 -164.024
2527.054 0.128 -164.041 0.677 -50.694 0.683 37.389 0.145 -27.875
          0.677 -50.694 0.128 -164.041 0.145 -27.875 0.683 37.389
          0.683 37.389 0.145 -27.875 0.128 -164.041 0.677 -50.694
          0.145 -27.875 0.683 37.389 0.677 -50.694 0.128 -164.041
2528.657 0.128 -164.059 0.677 -50.715 0.684 37.369 0.145 -27.926
          0.677 -50.715 0.128 -164.059 0.145 -27.926 0.684 37.369
          0.684 37.369 0.145 -27.926 0.128 -164.059 0.677 -50.715
          0.145 -27.926 0.684 37.369 0.677 -50.715 0.128 -164.059
2530.261 0.128 -164.076 0.677 -50.736 0.684 37.35 0.145 -27.977
          0.677 -50.736 0.128 -164.076 0.145 -27.977 0.684 37.35
          0.684 37.35 0.145 -27.977 0.128 -164.076 0.677 -50.736
          0.145 -27.977 0.684 37.35 0.677 -50.736 0.128 -164.076
2531.864 0.128 -164.094 0.677 -50.758 0.684 37.33 0.145 -28.028
          0.677 -50.758 0.128 -164.094 0.145 -28.028 0.684 37.33
          0.684 37.33 0.145 -28.028 0.128 -164.094 0.677 -50.758
          0.145 -28.028 0.684 37.33 0.677 -50.758 0.128 -164.094
2533.467 0.128 -164.111 0.676 -50.779 0.684 37.31 0.145 -28.078
          0.676 -50.779 0.128 -164.111 0.145 -28.078 0.684 37.31
          0.684 37.31 0.145 -28.078 0.128 -164.111 0.676 -50.779
          0.145 -28.078 0.684 37.31 0.676 -50.779 0.128 -164.111
2535.07 0.128 -164.129 0.676 -50.8 0.684 37.291 0.145 -28.129
          0.676 -50.8 0.128 -164.129 0.145 -28.129 0.684 37.291
          0.684 37.291 0.145 -28.129 0.128 -164.129 0.676 -50.8
          0.145 -28.129 0.684 37.291 0.676 -50.8 0.128 -164.129
2536.673 0.128 -164.146 0.676 -50.822 0.685 37.271 0.145 -28.18
          0.676 -50.822 0.128 -164.146 0.145 -28.18 0.685 37.271
          0.685 37.271 0.145 -28.18 0.128 -164.146 0.676 -50.822
          0.145 -28.18 0.685 37.271 0.676 -50.822 0.128 -164.146
2538.277 0.127 -164.163 0.676 -50.843 0.685 37.252 0.145 -28.231
          0.676 -50.843 0.127 -164.163 0.145 -28.231 0.685 37.252
          0.685 37.252 0.145 -28.231 0.127 -164.163 0.676 -50.843
          0.145 -28.231 0.685 37.252 0.676 -50.843 0.127 -164.163
2539.88 0.127 -164.18 0.676 -50.864 0.685 37.232 0.145 -28.281
          0.676 -50.864 0.127 -164.18 0.145 -28.281 0.685 37.232
          0.685 37.232 0.145 -28.281 0.127 -164.18 0.676 -50.864
          0.145 -28.281 0.685 37.232 0.676 -50.864 0.127 -164.18
2541.483 0.127 -164.198 0.675 -50.885 0.685 37.213 0.145 -28.332
          0.675 -50.885 0.127 -164.198 0.145 -28.332 0.685 37.213
          0.685 37.213 0.145 -28.332 0.127 -164.198 0.675 -50.885
          0.145 -28.332 0.685 37.213 0.675 -50.885 0.127 -164.198
2543.086 0.127 -164.215 0.675 -50.907 0.685 37.193 0.145 -28.382
          0.675 -50.907 0.127 -164.215 0.145 -28.382 0.685 37.193
          0.685 37.193 0.145 -28.382 0.127 -164.215 0.675 -50.907
          0.145 -28.382 0.685 37.193 0.675 -50.907 0.127 -164.215
2544.689 0.127 -164.232 0.675 -50.928 0.686 37.174 0.145 -28.433
          0.675 -50.928 0.127 -164.232 0.145 -28.433 0.686 37.174
          0.686 37.174 0.145 -28.433 0.127 -164.232 0.675 -50.928
          0.145 -28.433 0.686 37.174 0.675 -50.928 0.127 -164.232
2546.293 0.127 -164.249 0.675 -50.949 0.686 37.154 0.145 -28.484
          0.675 -50.949 0.127 -164.249 0.145 -28.484 0.686 37.154
          0.686 37.154 0.145 -28.484 0.127 -164.249 0.675 -50.949
          0.145 -28.484 0.686 37.154 0.675 -50.949 0.127 -164.249
2547.896 0.127 -164.266 0.675 -50.97 0.686 37.134 0.145 -28.534
          0.675 -50.97 0.127 -164.266 0.145 -28.534 0.686 37.134
          0.686 37.134 0.145 -28.534 0.127 -164.266 0.675 -50.97
          0.145 -28.534 0.686 37.134 0.675 -50.97 0.127 -164.266
2549.499 0.127 -164.283 0.674 -50.992 0.686 37.115 0.145 -28.585
          0.674 -50.992 0.127 -164.283 0.145 -28.585 0.686 37.115
          0.686 37.115 0.145 -28.585 0.127 -164.283 0.674 -50.992
          0.145 -28.585 0.686 37.115 0.674 -50.992 0.127 -164.283
2551.102 0.127 -164.3 0.674 -51.013 0.686 37.096 0.145 -28.635
          0.674 -51.013 0.127 -164.3 0.145 -28.635 0.686 37.096
          0.686 37.096 0.145 -28.635 0.127 -164.3 0.674 -51.013
          0.145 -28.635 0.686 37.096 0.674 -51.013 0.127 -164.3
2552.705 0.127 -164.316 0.674 -51.034 0.687 37.076 0.145 -28.686
          0.674 -51.034 0.127 -164.316 0.145 -28.686 0.687 37.076
          0.687 37.076 0.145 -28.686 0.127 -164.316 0.674 -51.034
          0.145 -28.686 0.687 37.076 0.674 -51.034 0.127 -164.316
2554.309 0.127 -164.333 0.674 -51.055 0.687 37.057 0.145 -28.736
          0.674 -51.055 0.127 -164.333 0.145 -28.736 0.687 37.057
          0.687 37.057 0.145 -28.736 0.127 -164.333 0.674 -51.055
          0.145 -28.736 0.687 37.057 0.674 -51.055 0.127 -164.333
2555.912 0.127 -164.35 0.674 -51.076 0.687 37.037 0.145 -28.787
          0.674 -51.076 0.127 -164.35 0.145 -28.787 0.687 37.037
          0.687 37.037 0.145 -28.787 0.127 -164.35 0.674 -51.076
          0.145 -28.787 0.687 37.037 0.674 -51.076 0.127 -164.35
2557.515 0.127 -164.367 0.673 -51.097 0.687 37.018 0.145 -28.837
          0.673 -51.097 0.127 -164.367 0.145 -28.837 0.687 37.018
          0.687 37.018 0.145 -28.837 0.127 -164.367 0.673 -51.097
          0.145 -28.837 0.687 37.018 0.673 -51.097 0.127 -164.367
2559.118 0.127 -164.383 0.673 -51.119 0.687 36.998 0.145 -28.888
          0.673 -51.119 0.127 -164.383 0.145 -28.888 0.687 36.998
          0.687 36.998 0.145 -28.888 0.127 -164.383 0.673 -51.119
          0.145 -28.888 0.687 36.998 0.673 -51.119 0.127 -164.383
2560.721 0.127 -164.4 0.673 -51.14 0.688 36.979 0.145 -28.938
          0.673 -51.14 0.127 -164.4 0.145 -28.938 0.688 36.979
          0.688 36.979 0.145 -28.938 0.127 -164.4 0.673 -51.14
          0.145 -28.938 0.688 36.979 0.673 -51.14 0.127 -164.4
2562.325 0.127 -164.416 0.673 -51.161 0.688 36.959 0.145 -28.988
          0.673 -51.161 0.127 -164.416 0.145 -28.988 0.688 36.959
          0.688 36.959 0.145 -28.988 0.127 -164.416 0.673 -51.161
          0.145 -28.988 0.688 36.959 0.673 -51.161 0.127 -164.416
2563.928 0.127 -164.433 0.673 -51.182 0.688 36.94 0.145 -29.039
          0.673 -51.182 0.127 -164.433 0.145 -29.039 0.688 36.94
          0.688 36.94 0.145 -29.039 0.127 -164.433 0.673 -51.182
          0.145 -29.039 0.688 36.94 0.673 -51.182 0.127 -164.433
2565.531 0.127 -164.449 0.672 -51.203 0.688 36.921 0.145 -29.089
          0.672 -51.203 0.127 -164.449 0.145 -29.089 0.688 36.921
          0.688 36.921 0.145 -29.089 0.127 -164.449 0.672 -51.203
          0.145 -29.089 0.688 36.921 0.672 -51.203 0.127 -164.449
2567.134 0.127 -164.466 0.672 -51.224 0.688 36.901 0.145 -29.14
          0.672 -51.224 0.127 -164.466 0.145 -29.14 0.688 36.901
          0.688 36.901 0.145 -29.14 0.127 -164.466 0.672 -51.224
          0.145 -29.14 0.688 36.901 0.672 -51.224 0.127 -164.466
2568.737 0.126 -164.482 0.672 -51.245 0.689 36.882 0.145 -29.19
          0.672 -51.245 0.126 -164.482 0.145 -29.19 0.689 36.882
          0.689 36.882 0.145 -29.19 0.126 -164.482 0.672 -51.245
          0.145 -29.19 0.689 36.882 0.672 -51.245 0.126 -164.482
2570.341 0.126 -164.498 0.672 -51.266 0.689 36.862 0.145 -29.24
          0.672 -51.266 0.126 -164.498 0.145 -29.24 0.689 36.862
          0.689 36.862 0.145 -29.24 0.126 -164.498 0.672 -51.266
          0.145 -29.24 0.689 36.862 0.672 -51.266 0.126 -164.498
2571.944 0.126 -164.515 0.672 -51.288 0.689 36.843 0.145 -29.29
          0.672 -51.288 0.126 -164.515 0.145 -29.29 0.689 36.843
          0.689 36.843 0.145 -29.29 0.126 -164.515 0.672 -51.288
          0.145 -29.29 0.689 36.843 0.672 -51.288 0.126 -164.515
2573.547 0.126 -164.531 0.671 -51.309 0.689 36.824 0.145 -29.341
          0.671 -51.309 0.126 -164.531 0.145 -29.341 0.689 36.824
          0.689 36.824 0.145 -29.341 0.126 -164.531 0.671 -51.309
          0.145 -29.341 0.689 36.824 0.671 -51.309 0.126 -164.531
2575.15 0.126 -164.547 0.671 -51.33 0.689 36.804 0.145 -29.391
          0.671 -51.33 0.126 -164.547 0.145 -29.391 0.689 36.804
          0.689 36.804 0.145 -29.391 0.126 -164.547 0.671 -51.33
          0.145 -29.391 0.689 36.804 0.671 -51.33 0.126 -164.547
2576.754 0.126 -164.563 0.671 -51.351 0.69 36.785 0.145 -29.441
          0.671 -51.351 0.126 -164.563 0.145 -29.441 0.69 36.785
          0.69 36.785 0.145 -29.441 0.126 -164.563 0.671 -51.351
          0.145 -29.441 0.69 36.785 0.671 -51.351 0.126 -164.563
2578.357 0.126 -164.579 0.671 -51.372 0.69 36.766 0.145 -29.491
          0.671 -51.372 0.126 -164.579 0.145 -29.491 0.69 36.766
          0.69 36.766 0.145 -29.491 0.126 -164.579 0.671 -51.372
          0.145 -29.491 0.69 36.766 0.671 -51.372 0.126 -164.579
2579.96 0.126 -164.595 0.671 -51.393 0.69 36.746 0.145 -29.541
          0.671 -51.393 0.126 -164.595 0.145 -29.541 0.69 36.746
          0.69 36.746 0.145 -29.541 0.126 -164.595 0.671 -51.393
          0.145 -29.541 0.69 36.746 0.671 -51.393 0.126 -164.595
2581.563 0.126 -164.611 0.67 -51.414 0.69 36.727 0.145 -29.591
          0.67 -51.414 0.126 -164.611 0.145 -29.591 0.69 36.727
          0.69 36.727 0.145 -29.591 0.126 -164.611 0.67 -51.414
          0.145 -29.591 0.69 36.727 0.67 -51.414 0.126 -164.611
2583.166 0.126 -164.627 0.67 -51.435 0.69 36.708 0.145 -29.641
          0.67 -51.435 0.126 -164.627 0.145 -29.641 0.69 36.708
          0.69 36.708 0.145 -29.641 0.126 -164.627 0.67 -51.435
          0.145 -29.641 0.69 36.708 0.67 -51.435 0.126 -164.627
2584.77 0.126 -164.643 0.67 -51.456 0.691 36.688 0.145 -29.692
          0.67 -51.456 0.126 -164.643 0.145 -29.692 0.691 36.688
          0.691 36.688 0.145 -29.692 0.126 -164.643 0.67 -51.456
          0.145 -29.692 0.691 36.688 0.67 -51.456 0.126 -164.643
2586.373 0.126 -164.659 0.67 -51.477 0.691 36.669 0.145 -29.742
          0.67 -51.477 0.126 -164.659 0.145 -29.742 0.691 36.669
          0.691 36.669 0.145 -29.742 0.126 -164.659 0.67 -51.477
          0.145 -29.742 0.691 36.669 0.67 -51.477 0.126 -164.659
2587.976 0.126 -164.674 0.67 -51.498 0.691 36.65 0.145 -29.792
          0.67 -51.498 0.126 -164.674 0.145 -29.792 0.691 36.65
          0.691 36.65 0.145 -29.792 0.126 -164.674 0.67 -51.498
          0.145 -29.792 0.691 36.65 0.67 -51.498 0.126 -164.674
2589.579 0.126 -164.69 0.67 -51.519 0.691 36.631 0.145 -29.842
          0.67 -51.519 0.126 -164.69 0.145 -29.842 0.691 36.631
          0.691 36.631 0.145 -29.842 0.126 -164.69 0.67 -51.519
          0.145 -29.842 0.691 36.631 0.67 -51.519 0.126 -164.69
2591.182 0.126 -164.706 0.669 -51.54 0.691 36.611 0.145 -29.892
          0.669 -51.54 0.126 -164.706 0.145 -29.892 0.691 36.611
          0.691 36.611 0.145 -29.892 0.126 -164.706 0.669 -51.54
          0.145 -29.892 0.691 36.611 0.669 -51.54 0.126 -164.706
2592.786 0.126 -164.721 0.669 -51.561 0.692 36.592 0.145 -29.942
          0.669 -51.561 0.126 -164.721 0.145 -29.942 0.692 36.592
          0.692 36.592 0.145 -29.942 0.126 -164.721 0.669 -51.561
          0.145 -29.942 0.692 36.592 0.669 -51.561 0.126 -164.721
2594.389 0.126 -164.737 0.669 -51.582 0.692 36.573 0.145 -29.992
          0.669 -51.582 0.126 -164.737 0.145 -29.992 0.692 36.573
          0.692 36.573 0.145 -29.992 0.126 -164.737 0.669 -51.582
          0.145 -29.992 0.692 36.573 0.669 -51.582 0.126 -164.737
2595.992 0.125 -164.752 0.669 -51.603 0.692 36.554 0.145 -30.042
          0.669 -51.603 0.125 -164.752 0.145 -30.042 0.692 36.554
          0.692 36.554 0.145 -30.042 0.125 -164.752 0.669 -51.603
          0.145 -30.042 0.692 36.554 0.669 -51.603 0.125 -164.752
2597.595 0.125 -164.768 0.669 -51.624 0.692 36.535 0.145 -30.091
          0.669 -51.624 0.125 -164.768 0.145 -30.091 0.692 36.535
          0.692 36.535 0.145 -30.091 0.125 -164.768 0.669 -51.624
          0.145 -30.091 0.692 36.535 0.669 -51.624 0.125 -164.768
2599.198 0.125 -164.783 0.668 -51.645 0.692 36.515 0.145 -30.141
          0.668 -51.645 0.125 -164.783 0.145 -30.141 0.692 36.515
          0.692 36.515 0.145 -30.141 0.125 -164.783 0.668 -51.645
          0.145 -30.141 0.692 36.515 0.668 -51.645 0.125 -164.783
2600.802 0.125 -164.799 0.668 -51.666 0.693 36.496 0.145 -30.191
          0.668 -51.666 0.125 -164.799 0.145 -30.191 0.693 36.496
          0.693 36.496 0.145 -30.191 0.125 -164.799 0.668 -51.666
          0.145 -30.191 0.693 36.496 0.668 -51.666 0.125 -164.799
2602.405 0.125 -164.814 0.668 -51.687 0.693 36.477 0.145 -30.241
          0.668 -51.687 0.125 -164.814 0.145 -30.241 0.693 36.477
          0.693 36.477 0.145 -30.241 0.125 -164.814 0.668 -51.687
          0.145 -30.241 0.693 36.477 0.668 -51.687 0.125 -164.814
2604.008 0.125 -164.829 0.668 -51.708 0.693 36.458 0.145 -30.291
          0.668 -51.708 0.125 -164.829 0.145 -30.291 0.693 36.458
          0.693 36.458 0.145 -30.291 0.125 -164.829 0.668 -51.708
          0.145 -30.291 0.693 36.458 0.668 -51.708 0.125 -164.829
2605.611 0.125 -164.844 0.668 -51.729 0.693 36.439 0.145 -30.341
          0.668 -51.729 0.125 -164.844 0.145 -30.341 0.693 36.439
          0.693 36.439 0.145 -30.341 0.125 -164.844 0.668 -51.729
          0.145 -30.341 0.693 36.439 0.668 -51.729 0.125 -164.844
2607.214 0.125 -164.86 0.667 -51.749 0.693 36.419 0.145 -30.39
          0.667 -51.749 0.125 -164.86 0.145 -30.39 0.693 36.419
          0.693 36.419 0.145 -30.39 0.125 -164.86 0.667 -51.749
          0.145 -30.39 0.693 36.419 0.667 -51.749 0.125 -164.86
2608.818 0.125 -164.875 0.667 -51.77 0.694 36.4 0.145 -30.44
          0.667 -51.77 0.125 -164.875 0.145 -30.44 0.694 36.4
          0.694 36.4 0.145 -30.44 0.125 -164.875 0.667 -51.77
          0.145 -30.44 0.694 36.4 0.667 -51.77 0.125 -164.875
2610.421 0.125 -164.89 0.667 -51.791 0.694 36.381 0.145 -30.49
          0.667 -51.791 0.125 -164.89 0.145 -30.49 0.694 36.381
          0.694 36.381 0.145 -30.49 0.125 -164.89 0.667 -51.791
          0.145 -30.49 0.694 36.381 0.667 -51.791 0.125 -164.89
2612.024 0.125 -164.905 0.667 -51.812 0.694 36.362 0.145 -30.54
          0.667 -51.812 0.125 -164.905 0.145 -30.54 0.694 36.362
          0.694 36.362 0.145 -30.54 0.125 -164.905 0.667 -51.812
          0.145 -30.54 0.694 36.362 0.667 -51.812 0.125 -164.905
2613.627 0.125 -164.92 0.667 -51.833 0.694 36.343 0.145 -30.589
          0.667 -51.833 0.125 -164.92 0.145 -30.589 0.694 36.343
          0.694 36.343 0.145 -30.589 0.125 -164.92 0.667 -51.833
          0.145 -30.589 0.694 36.343 0.667 -51.833 0.125 -164.92
2615.23 0.125 -164.935 0.666 -51.854 0.694 36.324 0.145 -30.639
          0.666 -51.854 0.125 -164.935 0.145 -30.639 0.694 36.324
          0.694 36.324 0.145 -30.639 0.125 -164.935 0.666 -51.854
          0.145 -30.639 0.694 36.324 0.666 -51.854 0.125 -164.935
2616.834 0.125 -164.95 0.666 -51.875 0.695 36.305 0.145 -30.689
          0.666 -51.875 0.125 -164.95 0.145 -30.689 0.695 36.305
          0.695 36.305 0.145 -30.689 0.125 -164.95 0.666 -51.875
          0.145 -30.689 0.695 36.305 0.666 -51.875 0.125 -164.95
2618.437 0.125 -164.965 0.666 -51.896 0.695 36.286 0.145 -30.738
          0.666 -51.896 0.125 -164.965 0.145 -30.738 0.695 36.286
          0.695 36.286 0.145 -30.738 0.125 -164.965 0.666 -51.896
          0.145 -30.738 0.695 36.286 0.666 -51.896 0.125 -164.965
2620.04 0.125 -164.979 0.666 -51.916 0.695 36.267 0.145 -30.788
          0.666 -51.916 0.125 -164.979 0.145 -30.788 0.695 36.267
          0.695 36.267 0.145 -30.788 0.125 -164.979 0.666 -51.916
          0.145 -30.788 0.695 36.267 0.666 -51.916 0.125 -164.979
2621.643 0.125 -164.994 0.666 -51.937 0.695 36.248 0.145 -30.838
          0.666 -51.937 0.125 -164.994 0.145 -30.838 0.695 36.248
          0.695 36.248 0.145 -30.838 0.125 -164.994 0.666 -51.937
          0.145 -30.838 0.695 36.248 0.666 -51.937 0.125 -164.994
2623.246 0.125 -165.009 0.665 -51.958 0.695 36.228 0.145 -30.887
          0.665 -51.958 0.125 -165.009 0.145 -30.887 0.695 36.228
          0.695 36.228 0.145 -30.887 0.125 -165.009 0.665 -51.958
          0.145 -30.887 0.695 36.228 0.665 -51.958 0.125 -165.009
2624.85 0.124 -165.023 0.665 -51.979 0.696 36.209 0.145 -30.937
          0.665 -51.979 0.124 -165.023 0.145 -30.937 0.696 36.209
          0.696 36.209 0.145 -30.937 0.124 -165.023 0.665 -51.979
          0.145 -30.937 0.696 36.209 0.665 -51.979 0.124 -165.023
2626.453 0.124 -165.038 0.665 -52 0.696 36.19 0.145 -30.986
          0.665 -52 0.124 -165.038 0.145 -30.986 0.696 36.19
          0.696 36.19 0.145 -30.986 0.124 -165.038 0.665 -52
          0.145 -30.986 0.696 36.19 0.665 -52 0.124 -165.038
2628.056 0.124 -165.052 0.665 -52.021 0.696 36.171 0.145 -31.036
          0.665 -52.021 0.124 -165.052 0.145 -31.036 0.696 36.171
          0.696 36.171 0.145 -31.036 0.124 -165.052 0.665 -52.021
          0.145 -31.036 0.696 36.171 0.665 -52.021 0.124 -165.052
2629.659 0.124 -165.067 0.665 -52.041 0.696 36.152 0.145 -31.085
          0.665 -52.041 0.124 -165.067 0.145 -31.085 0.696 36.152
          0.696 36.152 0.145 -31.085 0.124 -165.067 0.665 -52.041
          0.145 -31.085 0.696 36.152 0.665 -52.041 0.124 -165.067
2631.263 0.124 -165.081 0.664 -52.062 0.696 36.133 0.145 -31.135
          0.664 -52.062 0.124 -165.081 0.145 -31.135 0.696 36.133
          0.696 36.133 0.145 -31.135 0.124 -165.081 0.664 -52.062
          0.145 -31.135 0.696 36.133 0.664 -52.062 0.124 -165.081
2632.866 0.124 -165.096 0.664 -52.083 0.697 36.114 0.145 -31.184
          0.664 -52.083 0.124 -165.096 0.145 -31.184 0.697 36.114
          0.697 36.114 0.145 -31.184 0.124 -165.096 0.664 -52.083
          0.145 -31.184 0.697 36.114 0.664 -52.083 0.124 -165.096
2634.469 0.124 -165.11 0.664 -52.104 0.697 36.095 0.145 -31.234
          0.664 -52.104 0.124 -165.11 0.145 -31.234 0.697 36.095
          0.697 36.095 0.145 -31.234 0.124 -165.11 0.664 -52.104
          0.145 -31.234 0.697 36.095 0.664 -52.104 0.124 -165.11
2636.072 0.124 -165.124 0.664 -52.125 0.697 36.076 0.145 -31.283
          0.664 -52.125 0.124 -165.124 0.145 -31.283 0.697 36.076
          0.697 36.076 0.145 -31.283 0.124 -165.124 0.664 -52.125
          0.145 -31.283 0.697 36.076 0.664 -52.125 0.124 -165.124
2637.675 0.124 -165.139 0.664 -52.145 0.697 36.057 0.145 -31.332
          0.664 -52.145 0.124 -165.139 0.145 -31.332 0.697 36.057
          0.697 36.057 0.145 -31.332 0.124 -165.139 0.664 -52.145
          0.145 -31.332 0.697 36.057 0.664 -52.145 0.124 -165.139
2639.279 0.124 -165.153 0.664 -52.166 0.697 36.038 0.145 -31.382
          0.664 -52.166 0.124 -165.153 0.145 -31.382 0.697 36.038
          0.697 36.038 0.145 -31.382 0.124 -165.153 0.664 -52.166
          0.145 -31.382 0.697 36.038 0.664 -52.166 0.124 -165.153
2640.882 0.124 -165.167 0.663 -52.187 0.698 36.019 0.145 -31.431
          0.663 -52.187 0.124 -165.167 0.145 -31.431 0.698 36.019
          0.698 36.019 0.145 -31.431 0.124 -165.167 0.663 -52.187
          0.145 -31.431 0.698 36.019 0.663 -52.187 0.124 -165.167
2642.485 0.124 -165.181 0.663 -52.208 0.698 36 0.145 -31.48
          0.663 -52.208 0.124 -165.181 0.145 -31.48 0.698 36
          0.698 36 0.145 -31.48 0.124 -165.181 0.663 -52.208
          0.145 -31.48 0.698 36 0.663 -52.208 0.124 -165.181
2644.088 0.124 -165.195 0.663 -52.228 0.698 35.982 0.145 -31.53
          0.663 -52.228 0.124 -165.195 0.145 -31.53 0.698 35.982
          0.698 35.982 0.145 -31.53 0.124 -165.195 0.663 -52.228
          0.145 -31.53 0.698 35.982 0.663 -52.228 0.124 -165.195
2645.691 0.124 -165.209 0.663 -52.249 0.698 35.963 0.145 -31.579
          0.663 -52.249 0.124 -165.209 0.145 -31.579 0.698 35.963
          0.698 35.963 0.145 -31.579 0.124 -165.209 0.663 -52.249
          0.145 -31.579 0.698 35.963 0.663 -52.249 0.124 -165.209
2647.295 0.124 -165.223 0.663 -52.27 0.698 35.944 0.145 -31.628
          0.663 -52.27 0.124 -165.223 0.145 -31.628 0.698 35.944
          0.698 35.944 0.145 -31.628 0.124 -165.223 0.663 -52.27
          0.145 -31.628 0.698 35.944 0.663 -52.27 0.124 -165.223
2648.898 0.124 -165.237 0.662 -52.29 0.699 35.925 0.145 -31.677
          0.662 -52.29 0.124 -165.237 0.145 -31.677 0.699 35.925
          0.699 35.925 0.145 -31.677 0.124 -165.237 0.662 -52.29
          0.145 -31.677 0.699 35.925 0.662 -52.29 0.124 -165.237
2650.501 0.124 -165.251 0.662 -52.311 0.699 35.906 0.145 -31.727
          0.662 -52.311 0.124 -165.251 0.145 -31.727 0.699 35.906
          0.699 35.906 0.145 -31.727 0.124 -165.251 0.662 -52.311
          0.145 -31.727 0.699 35.906 0.662 -52.311 0.124 -165.251
2652.104 0.123 -165.265 0.662 -52.332 0.699 35.887 0.145 -31.776
          0.662 -52.332 0.123 -165.265 0.145 -31.776 0.699 35.887
          0.699 35.887 0.145 -31.776 0.123 -165.265 0.662 -52.332
          0.145 -31.776 0.699 35.887 0.662 -52.332 0.123 -165.265
2653.707 0.123 -165.278 0.662 -52.352 0.699 35.868 0.145 -31.825
          0.662 -52.352 0.123 -165.278 0.145 -31.825 0.699 35.868
          0.699 35.868 0.145 -31.825 0.123 -165.278 0.662 -52.352
          0.145 -31.825 0.699 35.868 0.662 -52.352 0.123 -165.278
2655.311 0.123 -165.292 0.662 -52.373 0.699 35.849 0.145 -31.874
          0.662 -52.373 0.123 -165.292 0.145 -31.874 0.699 35.849
          0.699 35.849 0.145 -31.874 0.123 -165.292 0.662 -52.373
          0.145 -31.874 0.699 35.849 0.662 -52.373 0.123 -165.292
2656.914 0.123 -165.306 0.661 -52.394 0.7 35.83 0.145 -31.923
          0.661 -52.394 0.123 -165.306 0.145 -31.923 0.7 35.83
          0.7 35.83 0.145 -31.923 0.123 -165.306 0.661 -52.394
          0.145 -31.923 0.7 35.83 0.661 -52.394 0.123 -165.306
2658.517 0.123 -165.319 0.661 -52.414 0.7 35.812 0.145 -31.972
          0.661 -52.414 0.123 -165.319 0.145 -31.972 0.7 35.812
          0.7 35.812 0.145 -31.972 0.123 -165.319 0.661 -52.414
          0.145 -31.972 0.7 35.812 0.661 -52.414 0.123 -165.319
2660.12 0.123 -165.333 0.661 -52.435 0.7 35.793 0.145 -32.021
          0.661 -52.435 0.123 -165.333 0.145 -32.021 0.7 35.793
          0.7 35.793 0.145 -32.021 0.123 -165.333 0.661 -52.435
          0.145 -32.021 0.7 35.793 0.661 -52.435 0.123 -165.333
2661.723 0.123 -165.346 0.661 -52.456 0.7 35.774 0.145 -32.071
          0.661 -52.456 0.123 -165.346 0.145 -32.071 0.7 35.774
          0.7 35.774 0.145 -32.071 0.123 -165.346 0.661 -52.456
          0.145 -32.071 0.7 35.774 0.661 -52.456 0.123 -165.346
2663.327 0.123 -165.36 0.661 -52.476 0.7 35.755 0.145 -32.12
          0.661 -52.476 0.123 -165.36 0.145 -32.12 0.7 35.755
          0.7 35.755 0.145 -32.12 0.123 -165.36 0.661 -52.476
          0.145 -32.12 0.7 35.755 0.661 -52.476 0.123 -165.36
2664.93 0.123 -165.373 0.66 -52.497 0.7 35.736 0.145 -32.169
          0.66 -52.497 0.123 -165.373 0.145 -32.169 0.7 35.736
          0.7 35.736 0.145 -32.169 0.123 -165.373 0.66 -52.497
          0.145 -32.169 0.7 35.736 0.66 -52.497 0.123 -165.373
2666.533 0.123 -165.386 0.66 -52.518 0.701 35.717 0.145 -32.218
          0.66 -52.518 0.123 -165.386 0.145 -32.218 0.701 35.717
          0.701 35.717 0.145 -32.218 0.123 -165.386 0.66 -52.518
          0.145 -32.218 0.701 35.717 0.66 -52.518 0.123 -165.386
2668.136 0.123 -165.4 0.66 -52.538 0.701 35.699 0.145 -32.267
          0.66 -52.538 0.123 -165.4 0.145 -32.267 0.701 35.699
          0.701 35.699 0.145 -32.267 0.123 -165.4 0.66 -52.538
          0.145 -32.267 0.701 35.699 0.66 -52.538 0.123 -165.4
2669.739 0.123 -165.413 0.66 -52.559 0.701 35.68 0.145 -32.316
          0.66 -52.559 0.123 -165.413 0.145 -32.316 0.701 35.68
          0.701 35.68 0.145 -32.316 0.123 -165.413 0.66 -52.559
          0.145 -32.316 0.701 35.68 0.66 -52.559 0.123 -165.413
2671.343 0.123 -165.426 0.66 -52.579 0.701 35.661 0.145 -32.365
          0.66 -52.579 0.123 -165.426 0.145 -32.365 0.701 35.661
          0.701 35.661 0.145 -32.365 0.123 -165.426 0.66 -52.579
          0.145 -32.365 0.701 35.661 0.66 -52.579 0.123 -165.426
2672.946 0.123 -165.439 0.659 -52.6 0.701 35.642 0.145 -32.413
          0.659 -52.6 0.123 -165.439 0.145 -32.413 0.701 35.642
          0.701 35.642 0.145 -32.413 0.123 -165.439 0.659 -52.6
          0.145 -32.413 0.701 35.642 0.659 -52.6 0.123 -165.439
2674.549 0.123 -165.452 0.659 -52.621 0.702 35.624 0.145 -32.462
          0.659 -52.621 0.123 -165.452 0.145 -32.462 0.702 35.624
          0.702 35.624 0.145 -32.462 0.123 -165.452 0.659 -52.621
          0.145 -32.462 0.702 35.624 0.659 -52.621 0.123 -165.452
2676.152 0.123 -165.465 0.659 -52.641 0.702 35.605 0.145 -32.511
          0.659 -52.641 0.123 -165.465 0.145 -32.511 0.702 35.605
          0.702 35.605 0.145 -32.511 0.123 -165.465 0.659 -52.641
          0.145 -32.511 0.702 35.605 0.659 -52.641 0.123 -165.465
2677.756 0.123 -165.478 0.659 -52.662 0.702 35.586 0.145 -32.56
          0.659 -52.662 0.123 -165.478 0.145 -32.56 0.702 35.586
          0.702 35.586 0.145 -32.56 0.123 -165.478 0.659 -52.662
          0.145 -32.56 0.702 35.586 0.659 -52.662 0.123 -165.478
2679.359 0.123 -165.491 0.659 -52.682 0.702 35.567 0.145 -32.609
          0.659 -52.682 0.123 -165.491 0.145 -32.609 0.702 35.567
          0.702 35.567 0.145 -32.609 0.123 -165.491 0.659 -52.682
          0.145 -32.609 0.702 35.567 0.659 -52.682 0.123 -165.491
2680.962 0.122 -165.504 0.659 -52.703 0.702 35.549 0.145 -32.658
          0.659 -52.703 0.122 -165.504 0.145 -32.658 0.702 35.549
          0.702 35.549 0.145 -32.658 0.122 -165.504 0.659 -52.703
          0.145 -32.658 0.702 35.549 0.659 -52.703 0.122 -165.504
2682.565 0.122 -165.517 0.658 -52.723 0.703 35.53 0.145 -32.707
          0.658 -52.723 0.122 -165.517 0.145 -32.707 0.703 35.53
          0.703 35.53 0.145 -32.707 0.122 -165.517 0.658 -52.723
          0.145 -32.707 0.703 35.53 0.658 -52.723 0.122 -165.517
2684.168 0.122 -165.53 0.658 -52.744 0.703 35.511 0.145 -32.755
          0.658 -52.744 0.122 -165.53 0.145 -32.755 0.703 35.511
          0.703 35.511 0.145 -32.755 0.122 -165.53 0.658 -52.744
          0.145 -32.755 0.703 35.511 0.658 -52.744 0.122 -165.53
2685.772 0.122 -165.543 0.658 -52.764 0.703 35.492 0.145 -32.804
          0.658 -52.764 0.122 -165.543 0.145 -32.804 0.703 35.492
          0.703 35.492 0.145 -32.804 0.122 -165.543 0.658 -52.764
          0.145 -32.804 0.703 35.492 0.658 -52.764 0.122 -165.543
2687.375 0.122 -165.555 0.658 -52.785 0.703 35.474 0.145 -32.853
          0.658 -52.785 0.122 -165.555 0.145 -32.853 0.703 35.474
          0.703 35.474 0.145 -32.853 0.122 -165.555 0.658 -52.785
          0.145 -32.853 0.703 35.474 0.658 -52.785 0.122 -165.555
2688.978 0.122 -165.568 0.658 -52.805 0.703 35.455 0.145 -32.902
          0.658 -52.805 0.122 -165.568 0.145 -32.902 0.703 35.455
          0.703 35.455 0.145 -32.902 0.122 -165.568 0.658 -52.805
          0.145 -32.902 0.703 35.455 0.658 -52.805 0.122 -165.568
2690.581 0.122 -165.581 0.657 -52.826 0.704 35.436 0.145 -32.95
          0.657 -52.826 0.122 -165.581 0.145 -32.95 0.704 35.436
          0.704 35.436 0.145 -32.95 0.122 -165.581 0.657 -52.826
          0.145 -32.95 0.704 35.436 0.657 -52.826 0.122 -165.581
2692.184 0.122 -165.593 0.657 -52.846 0.704 35.418 0.145 -32.999
          0.657 -52.846 0.122 -165.593 0.145 -32.999 0.704 35.418
          0.704 35.418 0.145 -32.999 0.122 -165.593 0.657 -52.846
          0.145 -32.999 0.704 35.418 0.657 -52.846 0.122 -165.593
2693.788 0.122 -165.606 0.657 -52.867 0.704 35.399 0.145 -33.048
          0.657 -52.867 0.122 -165.606 0.145 -33.048 0.704 35.399
          0.704 35.399 0.145 -33.048 0.122 -165.606 0.657 -52.867
          0.145 -33.048 0.704 35.399 0.657 -52.867 0.122 -165.606
2695.391 0.122 -165.618 0.657 -52.887 0.704 35.38 0.145 -33.096
          0.657 -52.887 0.122 -165.618 0.145 -33.096 0.704 35.38
          0.704 35.38 0.145 -33.096 0.122 -165.618 0.657 -52.887
          0.145 -33.096 0.704 35.38 0.657 -52.887 0.122 -165.618
2696.994 0.122 -165.63 0.657 -52.908 0.704 35.362 0.145 -33.145
          0.657 -52.908 0.122 -165.63 0.145 -33.145 0.704 35.362
          0.704 35.362 0.145 -33.145 0.122 -165.63 0.657 -52.908
          0.145 -33.145 0.704 35.362 0.657 -52.908 0.122 -165.63
2698.597 0.122 -165.643 0.656 -52.928 0.704 35.343 0.145 -33.193
          0.656 -52.928 0.122 -165.643 0.145 -33.193 0.704 35.343
          0.704 35.343 0.145 -33.193 0.122 -165.643 0.656 -52.928
          0.145 -33.193 0.704 35.343 0.656 -52.928 0.122 -165.643
2700.2 0.122 -165.655 0.656 -52.949 0.705 35.325 0.145 -33.242
          0.656 -52.949 0.122 -165.655 0.145 -33.242 0.705 35.325
          0.705 35.325 0.145 -33.242 0.122 -165.655 0.656 -52.949
          0.145 -33.242 0.705 35.325 0.656 -52.949 0.122 -165.655
2701.804 0.122 -165.667 0.656 -52.969 0.705 35.306 0.145 -33.291
          0.656 -52.969 0.122 -165.667 0.145 -33.291 0.705 35.306
          0.705 35.306 0.145 -33.291 0.122 -165.667 0.656 -52.969
          0.145 -33.291 0.705 35.306 0.656 -52.969 0.122 -165.667
2703.407 0.122 -165.679 0.656 -52.99 0.705 35.287 0.145 -33.339
          0.656 -52.99 0.122 -165.679 0.145 -33.339 0.705 35.287
          0.705 35.287 0.145 -33.339 0.122 -165.679 0.656 -52.99
          0.145 -33.339 0.705 35.287 0.656 -52.99 0.122 -165.679
2705.01 0.122 -165.692 0.656 -53.01 0.705 35.269 0.145 -33.388
          0.656 -53.01 0.122 -165.692 0.145 -33.388 0.705 35.269
          0.705 35.269 0.145 -33.388 0.122 -165.692 0.656 -53.01
          0.145 -33.388 0.705 35.269 0.656 -53.01 0.122 -165.692
2706.613 0.121 -165.704 0.655 -53.031 0.705 35.25 0.145 -33.436
          0.655 -53.031 0.121 -165.704 0.145 -33.436 0.705 35.25
          0.705 35.25 0.145 -33.436 0.121 -165.704 0.655 -53.031
          0.145 -33.436 0.705 35.25 0.655 -53.031 0.121 -165.704
2708.216 0.121 -165.716 0.655 -53.051 0.706 35.232 0.145 -33.485
          0.655 -53.051 0.121 -165.716 0.145 -33.485 0.706 35.232
          0.706 35.232 0.145 -33.485 0.121 -165.716 0.655 -53.051
          0.145 -33.485 0.706 35.232 0.655 -53.051 0.121 -165.716
2709.82 0.121 -165.728 0.655 -53.071 0.706 35.213 0.145 -33.533
          0.655 -53.071 0.121 -165.728 0.145 -33.533 0.706 35.213
          0.706 35.213 0.145 -33.533 0.121 -165.728 0.655 -53.071
          0.145 -33.533 0.706 35.213 0.655 -53.071 0.121 -165.728
2711.423 0.121 -165.74 0.655 -53.092 0.706 35.194 0.145 -33.582
          0.655 -53.092 0.121 -165.74 0.145 -33.582 0.706 35.194
          0.706 35.194 0.145 -33.582 0.121 -165.74 0.655 -53.092
          0.145 -33.582 0.706 35.194 0.655 -53.092 0.121 -165.74
2713.026 0.121 -165.751 0.655 -53.112 0.706 35.176 0.145 -33.63
          0.655 -53.112 0.121 -165.751 0.145 -33.63 0.706 35.176
          0.706 35.176 0.145 -33.63 0.121 -165.751 0.655 -53.112
          0.145 -33.63 0.706 35.176 0.655 -53.112 0.121 -165.751
2714.629 0.121 -165.763 0.655 -53.133 0.706 35.157 0.145 -33.678
          0.655 -53.133 0.121 -165.763 0.145 -33.678 0.706 35.157
          0.706 35.157 0.145 -33.678 0.121 -165.763 0.655 -53.133
          0.145 -33.678 0.706 35.157 0.655 -53.133 0.121 -165.763
2716.232 0.121 -165.775 0.654 -53.153 0.707 35.139 0.145 -33.727
          0.654 -53.153 0.121 -165.775 0.145 -33.727 0.707 35.139
          0.707 35.139 0.145 -33.727 0.121 -165.775 0.654 -53.153
          0.145 -33.727 0.707 35.139 0.654 -53.153 0.121 -165.775
2717.836 0.121 -165.787 0.654 -53.173 0.707 35.12 0.145 -33.775
          0.654 -53.173 0.121 -165.787 0.145 -33.775 0.707 35.12
          0.707 35.12 0.145 -33.775 0.121 -165.787 0.654 -53.173
          0.145 -33.775 0.707 35.12 0.654 -53.173 0.121 -165.787
2719.439 0.121 -165.798 0.654 -53.194 0.707 35.102 0.145 -33.823
          0.654 -53.194 0.121 -165.798 0.145 -33.823 0.707 35.102
          0.707 35.102 0.145 -33.823 0.121 -165.798 0.654 -53.194
          0.145 -33.823 0.707 35.102 0.654 -53.194 0.121 -165.798
2721.042 0.121 -165.81 0.654 -53.214 0.707 35.083 0.145 -33.872
          0.654 -53.214 0.121 -165.81 0.145 -33.872 0.707 35.083
          0.707 35.083 0.145 -33.872 0.121 -165.81 0.654 -53.214
          0.145 -33.872 0.707 35.083 0.654 -53.214 0.121 -165.81
2722.645 0.121 -165.822 0.654 -53.234 0.707 35.065 0.145 -33.92
          0.654 -53.234 0.121 -165.822 0.145 -33.92 0.707 35.065
          0.707 35.065 0.145 -33.92 0.121 -165.822 0.654 -53.234
          0.145 -33.92 0.707 35.065 0.654 -53.234 0.121 -165.822
2724.248 0.121 -165.833 0.653 -53.255 0.707 35.046 0.145 -33.968
          0.653 -53.255 0.121 -165.833 0.145 -33.968 0.707 35.046
          0.707 35.046 0.145 -33.968 0.121 -165.833 0.653 -53.255
          0.145 -33.968 0.707 35.046 0.653 -53.255 0.121 -165.833
2725.852 0.121 -165.845 0.653 -53.275 0.708 35.028 0.145 -34.017
          0.653 -53.275 0.121 -165.845 0.145 -34.017 0.708 35.028
          0.708 35.028 0.145 -34.017 0.121 -165.845 0.653 -53.275
          0.145 -34.017 0.708 35.028 0.653 -53.275 0.121 -165.845
2727.455 0.121 -165.856 0.653 -53.295 0.708 35.009 0.145 -34.065
          0.653 -53.295 0.121 -165.856 0.145 -34.065 0.708 35.009
          0.708 35.009 0.145 -34.065 0.121 -165.856 0.653 -53.295
          0.145 -34.065 0.708 35.009 0.653 -53.295 0.121 -165.856
2729.058 0.121 -165.867 0.653 -53.316 0.708 34.991 0.145 -34.113
          0.653 -53.316 0.121 -165.867 0.145 -34.113 0.708 34.991
          0.708 34.991 0.145 -34.113 0.121 -165.867 0.653 -53.316
          0.145 -34.113 0.708 34.991 0.653 -53.316 0.121 -165.867
2730.661 0.121 -165.879 0.653 -53.336 0.708 34.973 0.145 -34.161
          0.653 -53.336 0.121 -165.879 0.145 -34.161 0.708 34.973
          0.708 34.973 0.145 -34.161 0.121 -165.879 0.653 -53.336
          0.145 -34.161 0.708 34.973 0.653 -53.336 0.121 -165.879
2732.265 0.121 -165.89 0.652 -53.356 0.708 34.954 0.145 -34.209
          0.652 -53.356 0.121 -165.89 0.145 -34.209 0.708 34.954
          0.708 34.954 0.145 -34.209 0.121 -165.89 0.652 -53.356
          0.145 -34.209 0.708 34.954 0.652 -53.356 0.121 -165.89
2733.868 0.12 -165.901 0.652 -53.377 0.709 34.936 0.145 -34.258
          0.652 -53.377 0.12 -165.901 0.145 -34.258 0.709 34.936
          0.709 34.936 0.145 -34.258 0.12 -165.901 0.652 -53.377
          0.145 -34.258 0.709 34.936 0.652 -53.377 0.12 -165.901
2735.471 0.12 -165.912 0.652 -53.397 0.709 34.917 0.145 -34.306
          0.652 -53.397 0.12 -165.912 0.145 -34.306 0.709 34.917
          0.709 34.917 0.145 -34.306 0.12 -165.912 0.652 -53.397
          0.145 -34.306 0.709 34.917 0.652 -53.397 0.12 -165.912
2737.074 0.12 -165.923 0.652 -53.417 0.709 34.899 0.145 -34.354
          0.652 -53.417 0.12 -165.923 0.145 -34.354 0.709 34.899
          0.709 34.899 0.145 -34.354 0.12 -165.923 0.652 -53.417
          0.145 -34.354 0.709 34.899 0.652 -53.417 0.12 -165.923
2738.677 0.12 -165.934 0.652 -53.437 0.709 34.88 0.145 -34.402
          0.652 -53.437 0.12 -165.934 0.145 -34.402 0.709 34.88
          0.709 34.88 0.145 -34.402 0.12 -165.934 0.652 -53.437
          0.145 -34.402 0.709 34.88 0.652 -53.437 0.12 -165.934
2740.281 0.12 -165.945 0.651 -53.458 0.709 34.862 0.145 -34.45
          0.651 -53.458 0.12 -165.945 0.145 -34.45 0.709 34.862
          0.709 34.862 0.145 -34.45 0.12 -165.945 0.651 -53.458
          0.145 -34.45 0.709 34.862 0.651 -53.458 0.12 -165.945
2741.884 0.12 -165.956 0.651 -53.478 0.709 34.844 0.145 -34.498
          0.651 -53.478 0.12 -165.956 0.145 -34.498 0.709 34.844
          0.709 34.844 0.145 -34.498 0.12 -165.956 0.651 -53.478
          0.145 -34.498 0.709 34.844 0.651 -53.478 0.12 -165.956
2743.487 0.12 -165.967 0.651 -53.498 0.71 34.825 0.145 -34.546
          0.651 -53.498 0.12 -165.967 0.145 -34.546 0.71 34.825
          0.71 34.825 0.145 -34.546 0.12 -165.967 0.651 -53.498
          0.145 -34.546 0.71 34.825 0.651 -53.498 0.12 -165.967
2745.09 0.12 -165.978 0.651 -53.518 0.71 34.807 0.145 -34.594
          0.651 -53.518 0.12 -165.978 0.145 -34.594 0.71 34.807
          0.71 34.807 0.145 -34.594 0.12 -165.978 0.651 -53.518
          0.145 -34.594 0.71 34.807 0.651 -53.518 0.12 -165.978
2746.693 0.12 -165.989 0.651 -53.539 0.71 34.789 0.145 -34.642
          0.651 -53.539 0.12 -165.989 0.145 -34.642 0.71 34.789
          0.71 34.789 0.145 -34.642 0.12 -165.989 0.651 -53.539
          0.145 -34.642 0.71 34.789 0.651 -53.539 0.12 -165.989
2748.297 0.12 -166 0.651 -53.559 0.71 34.77 0.145 -34.69
          0.651 -53.559 0.12 -166 0.145 -34.69 0.71 34.77
          0.71 34.77 0.145 -34.69 0.12 -166 0.651 -53.559
          0.145 -34.69 0.71 34.77 0.651 -53.559 0.12 -166
2749.9 0.12 -166.01 0.65 -53.579 0.71 34.752 0.145 -34.738
          0.65 -53.579 0.12 -166.01 0.145 -34.738 0.71 34.752
          0.71 34.752 0.145 -34.738 0.12 -166.01 0.65 -53.579
          0.145 -34.738 0.71 34.752 0.65 -53.579 0.12 -166.01
2751.503 0.12 -166.021 0.65 -53.599 0.711 34.733 0.145 -34.786
          0.65 -53.599 0.12 -166.021 0.145 -34.786 0.711 34.733
          0.711 34.733 0.145 -34.786 0.12 -166.021 0.65 -53.599
          0.145 -34.786 0.711 34.733 0.65 -53.599 0.12 -166.021
2753.106 0.12 -166.032 0.65 -53.619 0.711 34.715 0.145 -34.834
          0.65 -53.619 0.12 -166.032 0.145 -34.834 0.711 34.715
          0.711 34.715 0.145 -34.834 0.12 -166.032 0.65 -53.619
          0.145 -34.834 0.711 34.715 0.65 -53.619 0.12 -166.032
2754.709 0.12 -166.042 0.65 -53.64 0.711 34.697 0.145 -34.882
          0.65 -53.64 0.12 -166.042 0.145 -34.882 0.711 34.697
          0.711 34.697 0.145 -34.882 0.12 -166.042 0.65 -53.64
          0.145 -34.882 0.711 34.697 0.65 -53.64 0.12 -166.042
2756.313 0.12 -166.053 0.65 -53.66 0.711 34.679 0.145 -34.93
          0.65 -53.66 0.12 -166.053 0.145 -34.93 0.711 34.679
          0.711 34.679 0.145 -34.93 0.12 -166.053 0.65 -53.66
          0.145 -34.93 0.711 34.679 0.65 -53.66 0.12 -166.053
2757.916 0.12 -166.063 0.649 -53.68 0.711 34.66 0.145 -34.978
          0.649 -53.68 0.12 -166.063 0.145 -34.978 0.711 34.66
          0.711 34.66 0.145 -34.978 0.12 -166.063 0.649 -53.68
          0.145 -34.978 0.711 34.66 0.649 -53.68 0.12 -166.063
2759.519 0.119 -166.073 0.649 -53.7 0.712 34.642 0.145 -35.025
          0.649 -53.7 0.119 -166.073 0.145 -35.025 0.712 34.642
          0.712 34.642 0.145 -35.025 0.119 -166.073 0.649 -53.7
          0.145 -35.025 0.712 34.642 0.649 -53.7 0.119 -166.073
2761.122 0.119 -166.084 0.649 -53.72 0.712 34.624 0.145 -35.073
          0.649 -53.72 0.119 -166.084 0.145 -35.073 0.712 34.624
          0.712 34.624 0.145 -35.073 0.119 -166.084 0.649 -53.72
          0.145 -35.073 0.712 34.624 0.649 -53.72 0.119 -166.084
2762.725 0.119 -166.094 0.649 -53.741 0.712 34.605 0.145 -35.121
          0.649 -53.741 0.119 -166.094 0.145 -35.121 0.712 34.605
          0.712 34.605 0.145 -35.121 0.119 -166.094 0.649 -53.741
          0.145 -35.121 0.712 34.605 0.649 -53.741 0.119 -166.094
2764.329 0.119 -166.104 0.649 -53.761 0.712 34.587 0.145 -35.169
          0.649 -53.761 0.119 -166.104 0.145 -35.169 0.712 34.587
          0.712 34.587 0.145 -35.169 0.119 -166.104 0.649 -53.761
          0.145 -35.169 0.712 34.587 0.649 -53.761 0.119 -166.104
2765.932 0.119 -166.114 0.648 -53.781 0.712 34.569 0.145 -35.217
          0.648 -53.781 0.119 -166.114 0.145 -35.217 0.712 34.569
          0.712 34.569 0.145 -35.217 0.119 -166.114 0.648 -53.781
          0.145 -35.217 0.712 34.569 0.648 -53.781 0.119 -166.114
2767.535 0.119 -166.125 0.648 -53.801 0.712 34.551 0.145 -35.264
          0.648 -53.801 0.119 -166.125 0.145 -35.264 0.712 34.551
          0.712 34.551 0.145 -35.264 0.119 -166.125 0.648 -53.801
          0.145 -35.264 0.712 34.551 0.648 -53.801 0.119 -166.125
2769.138 0.119 -166.135 0.648 -53.821 0.713 34.532 0.145 -35.312
          0.648 -53.821 0.119 -166.135 0.145 -35.312 0.713 34.532
          0.713 34.532 0.145 -35.312 0.119 -166.135 0.648 -53.821
          0.145 -35.312 0.713 34.532 0.648 -53.821 0.119 -166.135
2770.741 0.119 -166.145 0.648 -53.841 0.713 34.514 0.145 -35.36
          0.648 -53.841 0.119 -166.145 0.145 -35.36 0.713 34.514
          0.713 34.514 0.145 -35.36 0.119 -166.145 0.648 -53.841
          0.145 -35.36 0.713 34.514 0.648 -53.841 0.119 -166.145
2772.345 0.119 -166.155 0.648 -53.861 0.713 34.496 0.145 -35.407
          0.648 -53.861 0.119 -166.155 0.145 -35.407 0.713 34.496
          0.713 34.496 0.145 -35.407 0.119 -166.155 0.648 -53.861
          0.145 -35.407 0.713 34.496 0.648 -53.861 0.119 -166.155
2773.948 0.119 -166.164 0.648 -53.881 0.713 34.478 0.145 -35.455
          0.648 -53.881 0.119 -166.164 0.145 -35.455 0.713 34.478
          0.713 34.478 0.145 -35.455 0.119 -166.164 0.648 -53.881
          0.145 -35.455 0.713 34.478 0.648 -53.881 0.119 -166.164
2775.551 0.119 -166.174 0.647 -53.901 0.713 34.459 0.145 -35.503
          0.647 -53.901 0.119 -166.174 0.145 -35.503 0.713 34.459
          0.713 34.459 0.145 -35.503 0.119 -166.174 0.647 -53.901
          0.145 -35.503 0.713 34.459 0.647 -53.901 0.119 -166.174
2777.154 0.119 -166.184 0.647 -53.922 0.714 34.441 0.145 -35.55
          0.647 -53.922 0.119 -166.184 0.145 -35.55 0.714 34.441
          0.714 34.441 0.145 -35.55 0.119 -166.184 0.647 -53.922
          0.145 -35.55 0.714 34.441 0.647 -53.922 0.119 -166.184
2778.758 0.119 -166.194 0.647 -53.942 0.714 34.423 0.145 -35.598
          0.647 -53.942 0.119 -166.194 0.145 -35.598 0.714 34.423
          0.714 34.423 0.145 -35.598 0.119 -166.194 0.647 -53.942
          0.145 -35.598 0.714 34.423 0.647 -53.942 0.119 -166.194
2780.361 0.119 -166.204 0.647 -53.962 0.714 34.405 0.145 -35.646
          0.647 -53.962 0.119 -166.204 0.145 -35.646 0.714 34.405
          0.714 34.405 0.145 -35.646 0.119 -166.204 0.647 -53.962
          0.145 -35.646 0.714 34.405 0.647 -53.962 0.119 -166.204
2781.964 0.119 -166.213 0.647 -53.982 0.714 34.387 0.145 -35.693
          0.647 -53.982 0.119 -166.213 0.145 -35.693 0.714 34.387
          0.714 34.387 0.145 -35.693 0.119 -166.213 0.647 -53.982
          0.145 -35.693 0.714 34.387 0.647 -53.982 0.119 -166.213
2783.567 0.119 -166.223 0.646 -54.002 0.714 34.369 0.145 -35.741
          0.646 -54.002 0.119 -166.223 0.145 -35.741 0.714 34.369
          0.714 34.369 0.145 -35.741 0.119 -166.223 0.646 -54.002
          0.145 -35.741 0.714 34.369 0.646 -54.002 0.119 -166.223
2785.17 0.119 -166.232 0.646 -54.022 0.714 34.35 0.145 -35.788
          0.646 -54.022 0.119 -166.232 0.145 -35.788 0.714 34.35
          0.714 34.35 0.145 -35.788 0.119 -166.232 0.646 -54.022
          0.145 -35.788 0.714 34.35 0.646 -54.022 0.119 -166.232
2786.774 0.118 -166.242 0.646 -54.042 0.715 34.332 0.145 -35.836
          0.646 -54.042 0.118 -166.242 0.145 -35.836 0.715 34.332
          0.715 34.332 0.145 -35.836 0.118 -166.242 0.646 -54.042
          0.145 -35.836 0.715 34.332 0.646 -54.042 0.118 -166.242
2788.377 0.118 -166.251 0.646 -54.062 0.715 34.314 0.145 -35.883
          0.646 -54.062 0.118 -166.251 0.145 -35.883 0.715 34.314
          0.715 34.314 0.145 -35.883 0.118 -166.251 0.646 -54.062
          0.145 -35.883 0.715 34.314 0.646 -54.062 0.118 -166.251
2789.98 0.118 -166.261 0.646 -54.082 0.715 34.296 0.145 -35.931
          0.646 -54.082 0.118 -166.261 0.145 -35.931 0.715 34.296
          0.715 34.296 0.145 -35.931 0.118 -166.261 0.646 -54.082
          0.145 -35.931 0.715 34.296 0.646 -54.082 0.118 -166.261
2791.583 0.118 -166.27 0.646 -54.102 0.715 34.278 0.145 -35.978
          0.646 -54.102 0.118 -166.27 0.145 -35.978 0.715 34.278
          0.715 34.278 0.145 -35.978 0.118 -166.27 0.646 -54.102
          0.145 -35.978 0.715 34.278 0.646 -54.102 0.118 -166.27
2793.186 0.118 -166.279 0.645 -54.122 0.715 34.26 0.145 -36.026
          0.645 -54.122 0.118 -166.279 0.145 -36.026 0.715 34.26
          0.715 34.26 0.145 -36.026 0.118 -166.279 0.645 -54.122
          0.145 -36.026 0.715 34.26 0.645 -54.122 0.118 -166.279
2794.79 0.118 -166.288 0.645 -54.142 0.715 34.242 0.145 -36.073
          0.645 -54.142 0.118 -166.288 0.145 -36.073 0.715 34.242
          0.715 34.242 0.145 -36.073 0.118 -166.288 0.645 -54.142
          0.145 -36.073 0.715 34.242 0.645 -54.142 0.118 -166.288
2796.393 0.118 -166.298 0.645 -54.162 0.716 34.224 0.145 -36.12
          0.645 -54.162 0.118 -166.298 0.145 -36.12 0.716 34.224
          0.716 34.224 0.145 -36.12 0.118 -166.298 0.645 -54.162
          0.145 -36.12 0.716 34.224 0.645 -54.162 0.118 -166.298
2797.996 0.118 -166.307 0.645 -54.182 0.716 34.205 0.145 -36.168
          0.645 -54.182 0.118 -166.307 0.145 -36.168 0.716 34.205
          0.716 34.205 0.145 -36.168 0.118 -166.307 0.645 -54.182
          0.145 -36.168 0.716 34.205 0.645 -54.182 0.118 -166.307
2799.599 0.118 -166.316 0.645 -54.202 0.716 34.187 0.145 -36.215
          0.645 -54.202 0.118 -166.316 0.145 -36.215 0.716 34.187
          0.716 34.187 0.145 -36.215 0.118 -166.316 0.645 -54.202
          0.145 -36.215 0.716 34.187 0.645 -54.202 0.118 -166.316
2801.202 0.118 -166.325 0.644 -54.222 0.716 34.169 0.145 -36.262
          0.644 -54.222 0.118 -166.325 0.145 -36.262 0.716 34.169
          0.716 34.169 0.145 -36.262 0.118 -166.325 0.644 -54.222
          0.145 -36.262 0.716 34.169 0.644 -54.222 0.118 -166.325
2802.806 0.118 -166.334 0.644 -54.242 0.716 34.151 0.145 -36.31
          0.644 -54.242 0.118 -166.334 0.145 -36.31 0.716 34.151
          0.716 34.151 0.145 -36.31 0.118 -166.334 0.644 -54.242
          0.145 -36.31 0.716 34.151 0.644 -54.242 0.118 -166.334
2804.409 0.118 -166.343 0.644 -54.262 0.717 34.133 0.145 -36.357
          0.644 -54.262 0.118 -166.343 0.145 -36.357 0.717 34.133
          0.717 34.133 0.145 -36.357 0.118 -166.343 0.644 -54.262
          0.145 -36.357 0.717 34.133 0.644 -54.262 0.118 -166.343
2806.012 0.118 -166.351 0.644 -54.282 0.717 34.115 0.145 -36.404
          0.644 -54.282 0.118 -166.351 0.145 -36.404 0.717 34.115
          0.717 34.115 0.145 -36.404 0.118 -166.351 0.644 -54.282
          0.145 -36.404 0.717 34.115 0.644 -54.282 0.118 -166.351
2807.615 0.118 -166.36 0.644 -54.302 0.717 34.097 0.145 -36.452
          0.644 -54.302 0.118 -166.36 0.145 -36.452 0.717 34.097
          0.717 34.097 0.145 -36.452 0.118 -166.36 0.644 -54.302
          0.145 -36.452 0.717 34.097 0.644 -54.302 0.118 -166.36
2809.218 0.118 -166.369 0.643 -54.322 0.717 34.079 0.145 -36.499
          0.643 -54.322 0.118 -166.369 0.145 -36.499 0.717 34.079
          0.717 34.079 0.145 -36.499 0.118 -166.369 0.643 -54.322
          0.145 -36.499 0.717 34.079 0.643 -54.322 0.118 -166.369
2810.822 0.118 -166.378 0.643 -54.342 0.717 34.061 0.145 -36.546
          0.643 -54.342 0.118 -166.378 0.145 -36.546 0.717 34.061
          0.717 34.061 0.145 -36.546 0.118 -166.378 0.643 -54.342
          0.145 -36.546 0.717 34.061 0.643 -54.342 0.118 -166.378
2812.425 0.117 -166.386 0.643 -54.362 0.717 34.043 0.145 -36.593
          0.643 -54.362 0.117 -166.386 0.145 -36.593 0.717 34.043
          0.717 34.043 0.145 -36.593 0.117 -166.386 0.643 -54.362
          0.145 -36.593 0.717 34.043 0.643 -54.362 0.117 -166.386
2814.028 0.117 -166.395 0.643 -54.382 0.718 34.025 0.145 -36.64
          0.643 -54.382 0.117 -166.395 0.145 -36.64 0.718 34.025
          0.718 34.025 0.145 -36.64 0.117 -166.395 0.643 -54.382
          0.145 -36.64 0.718 34.025 0.643 -54.382 0.117 -166.395
2815.631 0.117 -166.403 0.643 -54.402 0.718 34.007 0.145 -36.688
          0.643 -54.402 0.117 -166.403 0.145 -36.688 0.718 34.007
          0.718 34.007 0.145 -36.688 0.117 -166.403 0.643 -54.402
          0.145 -36.688 0.718 34.007 0.643 -54.402 0.117 -166.403
2817.234 0.117 -166.412 0.643 -54.421 0.718 33.989 0.145 -36.735
          0.643 -54.421 0.117 -166.412 0.145 -36.735 0.718 33.989
          0.718 33.989 0.145 -36.735 0.117 -166.412 0.643 -54.421
          0.145 -36.735 0.718 33.989 0.643 -54.421 0.117 -166.412
2818.838 0.117 -166.42 0.642 -54.441 0.718 33.971 0.145 -36.782
          0.642 -54.441 0.117 -166.42 0.145 -36.782 0.718 33.971
          0.718 33.971 0.145 -36.782 0.117 -166.42 0.642 -54.441
          0.145 -36.782 0.718 33.971 0.642 -54.441 0.117 -166.42
2820.441 0.117 -166.429 0.642 -54.461 0.718 33.953 0.145 -36.829
          0.642 -54.461 0.117 -166.429 0.145 -36.829 0.718 33.953
          0.718 33.953 0.145 -36.829 0.117 -166.429 0.642 -54.461
          0.145 -36.829 0.718 33.953 0.642 -54.461 0.117 -166.429
2822.044 0.117 -166.437 0.642 -54.481 0.719 33.935 0.145 -36.876
          0.642 -54.481 0.117 -166.437 0.145 -36.876 0.719 33.935
          0.719 33.935 0.145 -36.876 0.117 -166.437 0.642 -54.481
          0.145 -36.876 0.719 33.935 0.642 -54.481 0.117 -166.437
2823.647 0.117 -166.445 0.642 -54.501 0.719 33.917 0.145 -36.923
          0.642 -54.501 0.117 -166.445 0.145 -36.923 0.719 33.917
          0.719 33.917 0.145 -36.923 0.117 -166.445 0.642 -54.501
          0.145 -36.923 0.719 33.917 0.642 -54.501 0.117 -166.445
2825.251 0.117 -166.453 0.642 -54.521 0.719 33.899 0.145 -36.97
          0.642 -54.521 0.117 -166.453 0.145 -36.97 0.719 33.899
          0.719 33.899 0.145 -36.97 0.117 -166.453 0.642 -54.521
          0.145 -36.97 0.719 33.899 0.642 -54.521 0.117 -166.453
2826.854 0.117 -166.461 0.641 -54.541 0.719 33.881 0.145 -37.017
          0.641 -54.541 0.117 -166.461 0.145 -37.017 0.719 33.881
          0.719 33.881 0.145 -37.017 0.117 -166.461 0.641 -54.541
          0.145 -37.017 0.719 33.881 0.641 -54.541 0.117 -166.461
2828.457 0.117 -166.47 0.641 -54.561 0.719 33.863 0.145 -37.064
          0.641 -54.561 0.117 -166.47 0.145 -37.064 0.719 33.863
          0.719 33.863 0.145 -37.064 0.117 -166.47 0.641 -54.561
          0.145 -37.064 0.719 33.863 0.641 -54.561 0.117 -166.47
2830.06 0.117 -166.478 0.641 -54.58 0.719 33.845 0.145 -37.111
          0.641 -54.58 0.117 -166.478 0.145 -37.111 0.719 33.845
          0.719 33.845 0.145 -37.111 0.117 -166.478 0.641 -54.58
          0.145 -37.111 0.719 33.845 0.641 -54.58 0.117 -166.478
2831.663 0.117 -166.486 0.641 -54.6 0.72 33.828 0.145 -37.158
          0.641 -54.6 0.117 -166.486 0.145 -37.158 0.72 33.828
          0.72 33.828 0.145 -37.158 0.117 -166.486 0.641 -54.6
          0.145 -37.158 0.72 33.828 0.641 -54.6 0.117 -166.486
2833.267 0.117 -166.493 0.641 -54.62 0.72 33.81 0.145 -37.205
          0.641 -54.62 0.117 -166.493 0.145 -37.205 0.72 33.81
          0.72 33.81 0.145 -37.205 0.117 -166.493 0.641 -54.62
          0.145 -37.205 0.72 33.81 0.641 -54.62 0.117 -166.493
2834.87 0.117 -166.501 0.641 -54.64 0.72 33.792 0.145 -37.252
          0.641 -54.64 0.117 -166.501 0.145 -37.252 0.72 33.792
          0.72 33.792 0.145 -37.252 0.117 -166.501 0.641 -54.64
          0.145 -37.252 0.72 33.792 0.641 -54.64 0.117 -166.501
2836.473 0.117 -166.509 0.64 -54.66 0.72 33.774 0.145 -37.299
          0.64 -54.66 0.117 -166.509 0.145 -37.299 0.72 33.774
          0.72 33.774 0.145 -37.299 0.117 -166.509 0.64 -54.66
          0.145 -37.299 0.72 33.774 0.64 -54.66 0.117 -166.509
2838.076 0.116 -166.517 0.64 -54.68 0.72 33.756 0.145 -37.346
          0.64 -54.68 0.116 -166.517 0.145 -37.346 0.72 33.756
          0.72 33.756 0.145 -37.346 0.116 -166.517 0.64 -54.68
          0.145 -37.346 0.72 33.756 0.64 -54.68 0.116 -166.517
2839.679 0.116 -166.525 0.64 -54.699 0.72 33.738 0.145 -37.393
          0.64 -54.699 0.116 -166.525 0.145 -37.393 0.72 33.738
          0.72 33.738 0.145 -37.393 0.116 -166.525 0.64 -54.699
          0.145 -37.393 0.72 33.738 0.64 -54.699 0.116 -166.525
2841.283 0.116 -166.532 0.64 -54.719 0.721 33.72 0.145 -37.44
          0.64 -54.719 0.116 -166.532 0.145 -37.44 0.721 33.72
          0.721 33.72 0.145 -37.44 0.116 -166.532 0.64 -54.719
          0.145 -37.44 0.721 33.72 0.64 -54.719 0.116 -166.532
2842.886 0.116 -166.54 0.64 -54.739 0.721 33.702 0.145 -37.486
          0.64 -54.739 0.116 -166.54 0.145 -37.486 0.721 33.702
          0.721 33.702 0.145 -37.486 0.116 -166.54 0.64 -54.739
          0.145 -37.486 0.721 33.702 0.64 -54.739 0.116 -166.54
2844.489 0.116 -166.547 0.639 -54.759 0.721 33.685 0.145 -37.533
          0.639 -54.759 0.116 -166.547 0.145 -37.533 0.721 33.685
          0.721 33.685 0.145 -37.533 0.116 -166.547 0.639 -54.759
          0.145 -37.533 0.721 33.685 0.639 -54.759 0.116 -166.547
2846.092 0.116 -166.555 0.639 -54.779 0.721 33.667 0.145 -37.58
          0.639 -54.779 0.116 -166.555 0.145 -37.58 0.721 33.667
          0.721 33.667 0.145 -37.58 0.116 -166.555 0.639 -54.779
          0.145 -37.58 0.721 33.667 0.639 -54.779 0.116 -166.555
2847.695 0.116 -166.562 0.639 -54.798 0.721 33.649 0.145 -37.627
          0.639 -54.798 0.116 -166.562 0.145 -37.627 0.721 33.649
          0.721 33.649 0.145 -37.627 0.116 -166.562 0.639 -54.798
          0.145 -37.627 0.721 33.649 0.639 -54.798 0.116 -166.562
2849.299 0.116 -166.57 0.639 -54.818 0.722 33.631 0.145 -37.673
          0.639 -54.818 0.116 -166.57 0.145 -37.673 0.722 33.631
          0.722 33.631 0.145 -37.673 0.116 -166.57 0.639 -54.818
          0.145 -37.673 0.722 33.631 0.639 -54.818 0.116 -166.57
2850.902 0.116 -166.577 0.639 -54.838 0.722 33.613 0.145 -37.72
          0.639 -54.838 0.116 -166.577 0.145 -37.72 0.722 33.613
          0.722 33.613 0.145 -37.72 0.116 -166.577 0.639 -54.838
          0.145 -37.72 0.722 33.613 0.639 -54.838 0.116 -166.577
2852.505 0.116 -166.584 0.638 -54.858 0.722 33.595 0.145 -37.767
          0.638 -54.858 0.116 -166.584 0.145 -37.767 0.722 33.595
          0.722 33.595 0.145 -37.767 0.116 -166.584 0.638 -54.858
          0.145 -37.767 0.722 33.595 0.638 -54.858 0.116 -166.584
2854.108 0.116 -166.591 0.638 -54.877 0.722 33.578 0.145 -37.814
          0.638 -54.877 0.116 -166.591 0.145 -37.814 0.722 33.578
          0.722 33.578 0.145 -37.814 0.116 -166.591 0.638 -54.877
          0.145 -37.814 0.722 33.578 0.638 -54.877 0.116 -166.591
2855.711 0.116 -166.599 0.638 -54.897 0.722 33.56 0.145 -37.86
          0.638 -54.897 0.116 -166.599 0.145 -37.86 0.722 33.56
          0.722 33.56 0.145 -37.86 0.116 -166.599 0.638 -54.897
          0.145 -37.86 0.722 33.56 0.638 -54.897 0.116 -166.599
2857.315 0.116 -166.606 0.638 -54.917 0.722 33.542 0.145 -37.907
          0.638 -54.917 0.116 -166.606 0.145 -37.907 0.722 33.542
          0.722 33.542 0.145 -37.907 0.116 -166.606 0.638 -54.917
          0.145 -37.907 0.722 33.542 0.638 -54.917 0.116 -166.606
2858.918 0.116 -166.613 0.638 -54.936 0.723 33.524 0.145 -37.954
          0.638 -54.936 0.116 -166.613 0.145 -37.954 0.723 33.524
          0.723 33.524 0.145 -37.954 0.116 -166.613 0.638 -54.936
          0.145 -37.954 0.723 33.524 0.638 -54.936 0.116 -166.613
2860.521 0.116 -166.62 0.638 -54.956 0.723 33.507 0.145 -38
          0.638 -54.956 0.116 -166.62 0.145 -38 0.723 33.507
          0.723 33.507 0.145 -38 0.116 -166.62 0.638 -54.956
          0.145 -38 0.723 33.507 0.638 -54.956 0.116 -166.62
2862.124 0.116 -166.627 0.637 -54.976 0.723 33.489 0.145 -38.047
          0.637 -54.976 0.116 -166.627 0.145 -38.047 0.723 33.489
          0.723 33.489 0.145 -38.047 0.116 -166.627 0.637 -54.976
          0.145 -38.047 0.723 33.489 0.637 -54.976 0.116 -166.627
2863.727 0.115 -166.634 0.637 -54.996 0.723 33.471 0.145 -38.093
          0.637 -54.996 0.115 -166.634 0.145 -38.093 0.723 33.471
          0.723 33.471 0.145 -38.093 0.115 -166.634 0.637 -54.996
          0.145 -38.093 0.723 33.471 0.637 -54.996 0.115 -166.634
2865.331 0.115 -166.64 0.637 -55.015 0.723 33.453 0.145 -38.14
          0.637 -55.015 0.115 -166.64 0.145 -38.14 0.723 33.453
          0.723 33.453 0.145 -38.14 0.115 -166.64 0.637 -55.015
          0.145 -38.14 0.723 33.453 0.637 -55.015 0.115 -166.64
2866.934 0.115 -166.647 0.637 -55.035 0.723 33.436 0.145 -38.187
          0.637 -55.035 0.115 -166.647 0.145 -38.187 0.723 33.436
          0.723 33.436 0.145 -38.187 0.115 -166.647 0.637 -55.035
          0.145 -38.187 0.723 33.436 0.637 -55.035 0.115 -166.647
2868.537 0.115 -166.654 0.637 -55.055 0.724 33.418 0.145 -38.233
          0.637 -55.055 0.115 -166.654 0.145 -38.233 0.724 33.418
          0.724 33.418 0.145 -38.233 0.115 -166.654 0.637 -55.055
          0.145 -38.233 0.724 33.418 0.637 -55.055 0.115 -166.654
2870.14 0.115 -166.661 0.636 -55.074 0.724 33.4 0.145 -38.28
          0.636 -55.074 0.115 -166.661 0.145 -38.28 0.724 33.4
          0.724 33.4 0.145 -38.28 0.115 -166.661 0.636 -55.074
          0.145 -38.28 0.724 33.4 0.636 -55.074 0.115 -166.661
2871.743 0.115 -166.667 0.636 -55.094 0.724 33.382 0.145 -38.326
          0.636 -55.094 0.115 -166.667 0.145 -38.326 0.724 33.382
          0.724 33.382 0.145 -38.326 0.115 -166.667 0.636 -55.094
          0.145 -38.326 0.724 33.382 0.636 -55.094 0.115 -166.667
2873.347 0.115 -166.674 0.636 -55.114 0.724 33.365 0.145 -38.373
          0.636 -55.114 0.115 -166.674 0.145 -38.373 0.724 33.365
          0.724 33.365 0.145 -38.373 0.115 -166.674 0.636 -55.114
          0.145 -38.373 0.724 33.365 0.636 -55.114 0.115 -166.674
2874.95 0.115 -166.68 0.636 -55.133 0.724 33.347 0.145 -38.419
          0.636 -55.133 0.115 -166.68 0.145 -38.419 0.724 33.347
          0.724 33.347 0.145 -38.419 0.115 -166.68 0.636 -55.133
          0.145 -38.419 0.724 33.347 0.636 -55.133 0.115 -166.68
2876.553 0.115 -166.687 0.636 -55.153 0.724 33.329 0.145 -38.466
          0.636 -55.153 0.115 -166.687 0.145 -38.466 0.724 33.329
          0.724 33.329 0.145 -38.466 0.115 -166.687 0.636 -55.153
          0.145 -38.466 0.724 33.329 0.636 -55.153 0.115 -166.687
2878.156 0.115 -166.693 0.636 -55.173 0.725 33.312 0.145 -38.512
          0.636 -55.173 0.115 -166.693 0.145 -38.512 0.725 33.312
          0.725 33.312 0.145 -38.512 0.115 -166.693 0.636 -55.173
          0.145 -38.512 0.725 33.312 0.636 -55.173 0.115 -166.693
2879.76 0.115 -166.699 0.635 -55.192 0.725 33.294 0.145 -38.558
          0.635 -55.192 0.115 -166.699 0.145 -38.558 0.725 33.294
          0.725 33.294 0.145 -38.558 0.115 -166.699 0.635 -55.192
          0.145 -38.558 0.725 33.294 0.635 -55.192 0.115 -166.699
2881.363 0.115 -166.706 0.635 -55.212 0.725 33.276 0.145 -38.605
          0.635 -55.212 0.115 -166.706 0.145 -38.605 0.725 33.276
          0.725 33.276 0.145 -38.605 0.115 -166.706 0.635 -55.212
          0.145 -38.605 0.725 33.276 0.635 -55.212 0.115 -166.706
2882.966 0.115 -166.712 0.635 -55.231 0.725 33.259 0.145 -38.651
          0.635 -55.231 0.115 -166.712 0.145 -38.651 0.725 33.259
          0.725 33.259 0.145 -38.651 0.115 -166.712 0.635 -55.231
          0.145 -38.651 0.725 33.259 0.635 -55.231 0.115 -166.712
2884.569 0.115 -166.718 0.635 -55.251 0.725 33.241 0.145 -38.697
          0.635 -55.251 0.115 -166.718 0.145 -38.697 0.725 33.241
          0.725 33.241 0.145 -38.697 0.115 -166.718 0.635 -55.251
          0.145 -38.697 0.725 33.241 0.635 -55.251 0.115 -166.718
2886.172 0.115 -166.724 0.635 -55.271 0.725 33.223 0.145 -38.744
          0.635 -55.271 0.115 -166.724 0.145 -38.744 0.725 33.223
          0.725 33.223 0.145 -38.744 0.115 -166.724 0.635 -55.271
          0.145 -38.744 0.725 33.223 0.635 -55.271 0.115 -166.724
2887.776 0.114 -166.73 0.634 -55.29 0.726 33.206 0.145 -38.79
          0.634 -55.29 0.114 -166.73 0.145 -38.79 0.726 33.206
          0.726 33.206 0.145 -38.79 0.114 -166.73 0.634 -55.29
          0.145 -38.79 0.726 33.206 0.634 -55.29 0.114 -166.73
2889.379 0.114 -166.736 0.634 -55.31 0.726 33.188 0.145 -38.836
          0.634 -55.31 0.114 -166.736 0.145 -38.836 0.726 33.188
          0.726 33.188 0.145 -38.836 0.114 -166.736 0.634 -55.31
          0.145 -38.836 0.726 33.188 0.634 -55.31 0.114 -166.736
2890.982 0.114 -166.742 0.634 -55.329 0.726 33.171 0.145 -38.883
          0.634 -55.329 0.114 -166.742 0.145 -38.883 0.726 33.171
          0.726 33.171 0.145 -38.883 0.114 -166.742 0.634 -55.329
          0.145 -38.883 0.726 33.171 0.634 -55.329 0.114 -166.742
2892.585 0.114 -166.748 0.634 -55.349 0.726 33.153 0.145 -38.929
          0.634 -55.349 0.114 -166.748 0.145 -38.929 0.726 33.153
          0.726 33.153 0.145 -38.929 0.114 -166.748 0.634 -55.349
          0.145 -38.929 0.726 33.153 0.634 -55.349 0.114 -166.748
2894.188 0.114 -166.754 0.634 -55.368 0.726 33.135 0.145 -38.975
          0.634 -55.368 0.114 -166.754 0.145 -38.975 0.726 33.135
          0.726 33.135 0.145 -38.975 0.114 -166.754 0.634 -55.368
          0.145 -38.975 0.726 33.135 0.634 -55.368 0.114 -166.754
2895.792 0.114 -166.76 0.634 -55.388 0.727 33.118 0.145 -39.021
          0.634 -55.388 0.114 -166.76 0.145 -39.021 0.727 33.118
          0.727 33.118 0.145 -39.021 0.114 -166.76 0.634 -55.388
          0.145 -39.021 0.727 33.118 0.634 -55.388 0.114 -166.76
2897.395 0.114 -166.765 0.633 -55.408 0.727 33.1 0.145 -39.068
          0.633 -55.408 0.114 -166.765 0.145 -39.068 0.727 33.1
          0.727 33.1 0.145 -39.068 0.114 -166.765 0.633 -55.408
          0.145 -39.068 0.727 33.1 0.633 -55.408 0.114 -166.765
2898.998 0.114 -166.771 0.633 -55.427 0.727 33.083 0.145 -39.114
          0.633 -55.427 0.114 -166.771 0.145 -39.114 0.727 33.083
          0.727 33.083 0.145 -39.114 0.114 -166.771 0.633 -55.427
          0.145 -39.114 0.727 33.083 0.633 -55.427 0.114 -166.771
2900.601 0.114 -166.777 0.633 -55.447 0.727 33.065 0.145 -39.16
          0.633 -55.447 0.114 -166.777 0.145 -39.16 0.727 33.065
          0.727 33.065 0.145 -39.16 0.114 -166.777 0.633 -55.447
          0.145 -39.16 0.727 33.065 0.633 -55.447 0.114 -166.777
2902.204 0.114 -166.782 0.633 -55.466 0.727 33.047 0.145 -39.206
          0.633 -55.466 0.114 -166.782 0.145 -39.206 0.727 33.047
          0.727 33.047 0.145 -39.206 0.114 -166.782 0.633 -55.466
          0.145 -39.206 0.727 33.047 0.633 -55.466 0.114 -166.782
2903.808 0.114 -166.788 0.633 -55.486 0.727 33.03 0.145 -39.252
          0.633 -55.486 0.114 -166.788 0.145 -39.252 0.727 33.03
          0.727 33.03 0.145 -39.252 0.114 -166.788 0.633 -55.486
          0.145 -39.252 0.727 33.03 0.633 -55.486 0.114 -166.788
2905.411 0.114 -166.793 0.632 -55.505 0.728 33.012 0.145 -39.298
          0.632 -55.505 0.114 -166.793 0.145 -39.298 0.728 33.012
          0.728 33.012 0.145 -39.298 0.114 -166.793 0.632 -55.505
          0.145 -39.298 0.728 33.012 0.632 -55.505 0.114 -166.793
2907.014 0.114 -166.798 0.632 -55.525 0.728 32.995 0.145 -39.344
          0.632 -55.525 0.114 -166.798 0.145 -39.344 0.728 32.995
          0.728 32.995 0.145 -39.344 0.114 -166.798 0.632 -55.525
          0.145 -39.344 0.728 32.995 0.632 -55.525 0.114 -166.798
2908.617 0.114 -166.804 0.632 -55.544 0.728 32.977 0.145 -39.39
          0.632 -55.544 0.114 -166.804 0.145 -39.39 0.728 32.977
          0.728 32.977 0.145 -39.39 0.114 -166.804 0.632 -55.544
          0.145 -39.39 0.728 32.977 0.632 -55.544 0.114 -166.804
2910.22 0.114 -166.809 0.632 -55.564 0.728 32.96 0.145 -39.437
          0.632 -55.564 0.114 -166.809 0.145 -39.437 0.728 32.96
          0.728 32.96 0.145 -39.437 0.114 -166.809 0.632 -55.564
          0.145 -39.437 0.728 32.96 0.632 -55.564 0.114 -166.809
2911.824 0.114 -166.814 0.632 -55.583 0.728 32.942 0.145 -39.483
          0.632 -55.583 0.114 -166.814 0.145 -39.483 0.728 32.942
          0.728 32.942 0.145 -39.483 0.114 -166.814 0.632 -55.583
          0.145 -39.483 0.728 32.942 0.632 -55.583 0.114 -166.814
2913.427 0.113 -166.819 0.632 -55.603 0.728 32.925 0.145 -39.529
          0.632 -55.603 0.113 -166.819 0.145 -39.529 0.728 32.925
          0.728 32.925 0.145 -39.529 0.113 -166.819 0.632 -55.603
          0.145 -39.529 0.728 32.925 0.632 -55.603 0.113 -166.819
2915.03 0.113 -166.824 0.631 -55.622 0.729 32.907 0.145 -39.575
          0.631 -55.622 0.113 -166.824 0.145 -39.575 0.729 32.907
          0.729 32.907 0.145 -39.575 0.113 -166.824 0.631 -55.622
          0.145 -39.575 0.729 32.907 0.631 -55.622 0.113 -166.824
2916.633 0.113 -166.829 0.631 -55.642 0.729 32.89 0.145 -39.621
          0.631 -55.642 0.113 -166.829 0.145 -39.621 0.729 32.89
          0.729 32.89 0.145 -39.621 0.113 -166.829 0.631 -55.642
          0.145 -39.621 0.729 32.89 0.631 -55.642 0.113 -166.829
2918.236 0.113 -166.834 0.631 -55.661 0.729 32.872 0.145 -39.666
          0.631 -55.661 0.113 -166.834 0.145 -39.666 0.729 32.872
          0.729 32.872 0.145 -39.666 0.113 -166.834 0.631 -55.661
          0.145 -39.666 0.729 32.872 0.631 -55.661 0.113 -166.834
2919.84 0.113 -166.839 0.631 -55.68 0.729 32.855 0.145 -39.712
          0.631 -55.68 0.113 -166.839 0.145 -39.712 0.729 32.855
          0.729 32.855 0.145 -39.712 0.113 -166.839 0.631 -55.68
          0.145 -39.712 0.729 32.855 0.631 -55.68 0.113 -166.839
2921.443 0.113 -166.844 0.631 -55.7 0.729 32.837 0.145 -39.758
          0.631 -55.7 0.113 -166.844 0.145 -39.758 0.729 32.837
          0.729 32.837 0.145 -39.758 0.113 -166.844 0.631 -55.7
          0.145 -39.758 0.729 32.837 0.631 -55.7 0.113 -166.844
2923.046 0.113 -166.849 0.63 -55.719 0.729 32.82 0.145 -39.804
          0.63 -55.719 0.113 -166.849 0.145 -39.804 0.729 32.82
          0.729 32.82 0.145 -39.804 0.113 -166.849 0.63 -55.719
          0.145 -39.804 0.729 32.82 0.63 -55.719 0.113 -166.849
2924.649 0.113 -166.854 0.63 -55.739 0.73 32.802 0.145 -39.85
          0.63 -55.739 0.113 -166.854 0.145 -39.85 0.73 32.802
          0.73 32.802 0.145 -39.85 0.113 -166.854 0.63 -55.739
          0.145 -39.85 0.73 32.802 0.63 -55.739 0.113 -166.854
2926.253 0.113 -166.858 0.63 -55.758 0.73 32.785 0.145 -39.896
          0.63 -55.758 0.113 -166.858 0.145 -39.896 0.73 32.785
          0.73 32.785 0.145 -39.896 0.113 -166.858 0.63 -55.758
          0.145 -39.896 0.73 32.785 0.63 -55.758 0.113 -166.858
2927.856 0.113 -166.863 0.63 -55.778 0.73 32.768 0.145 -39.942
          0.63 -55.778 0.113 -166.863 0.145 -39.942 0.73 32.768
          0.73 32.768 0.145 -39.942 0.113 -166.863 0.63 -55.778
          0.145 -39.942 0.73 32.768 0.63 -55.778 0.113 -166.863
2929.459 0.113 -166.868 0.63 -55.797 0.73 32.75 0.145 -39.988
          0.63 -55.797 0.113 -166.868 0.145 -39.988 0.73 32.75
          0.73 32.75 0.145 -39.988 0.113 -166.868 0.63 -55.797
          0.145 -39.988 0.73 32.75 0.63 -55.797 0.113 -166.868
2931.062 0.113 -166.872 0.63 -55.816 0.73 32.733 0.145 -40.034
          0.63 -55.816 0.113 -166.872 0.145 -40.034 0.73 32.733
          0.73 32.733 0.145 -40.034 0.113 -166.872 0.63 -55.816
          0.145 -40.034 0.73 32.733 0.63 -55.816 0.113 -166.872
2932.665 0.113 -166.877 0.629 -55.836 0.73 32.715 0.145 -40.079
          0.629 -55.836 0.113 -166.877 0.145 -40.079 0.73 32.715
          0.73 32.715 0.145 -40.079 0.113 -166.877 0.629 -55.836
          0.145 -40.079 0.73 32.715 0.629 -55.836 0.113 -166.877
2934.269 0.113 -166.881 0.629 -55.855 0.731 32.698 0.145 -40.125
          0.629 -55.855 0.113 -166.881 0.145 -40.125 0.731 32.698
          0.731 32.698 0.145 -40.125 0.113 -166.881 0.629 -55.855
          0.145 -40.125 0.731 32.698 0.629 -55.855 0.113 -166.881
2935.872 0.113 -166.885 0.629 -55.875 0.731 32.681 0.145 -40.171
          0.629 -55.875 0.113 -166.885 0.145 -40.171 0.731 32.681
          0.731 32.681 0.145 -40.171 0.113 -166.885 0.629 -55.875
          0.145 -40.171 0.731 32.681 0.629 -55.875 0.113 -166.885
2937.475 0.112 -166.89 0.629 -55.894 0.731 32.663 0.145 -40.217
          0.629 -55.894 0.112 -166.89 0.145 -40.217 0.731 32.663
          0.731 32.663 0.145 -40.217 0.112 -166.89 0.629 -55.894
          0.145 -40.217 0.731 32.663 0.629 -55.894 0.112 -166.89
2939.078 0.112 -166.894 0.629 -55.913 0.731 32.646 0.145 -40.262
          0.629 -55.913 0.112 -166.894 0.145 -40.262 0.731 32.646
          0.731 32.646 0.145 -40.262 0.112 -166.894 0.629 -55.913
          0.145 -40.262 0.731 32.646 0.629 -55.913 0.112 -166.894
2940.681 0.112 -166.898 0.628 -55.933 0.731 32.628 0.145 -40.308
          0.628 -55.933 0.112 -166.898 0.145 -40.308 0.731 32.628
          0.731 32.628 0.145 -40.308 0.112 -166.898 0.628 -55.933
          0.145 -40.308 0.731 32.628 0.628 -55.933 0.112 -166.898
2942.285 0.112 -166.902 0.628 -55.952 0.731 32.611 0.145 -40.354
          0.628 -55.952 0.112 -166.902 0.145 -40.354 0.731 32.611
          0.731 32.611 0.145 -40.354 0.112 -166.902 0.628 -55.952
          0.145 -40.354 0.731 32.611 0.628 -55.952 0.112 -166.902
2943.888 0.112 -166.906 0.628 -55.971 0.732 32.594 0.145 -40.399
          0.628 -55.971 0.112 -166.906 0.145 -40.399 0.732 32.594
          0.732 32.594 0.145 -40.399 0.112 -166.906 0.628 -55.971
          0.145 -40.399 0.732 32.594 0.628 -55.971 0.112 -166.906
2945.491 0.112 -166.91 0.628 -55.991 0.732 32.576 0.145 -40.445
          0.628 -55.991 0.112 -166.91 0.145 -40.445 0.732 32.576
          0.732 32.576 0.145 -40.445 0.112 -166.91 0.628 -55.991
          0.145 -40.445 0.732 32.576 0.628 -55.991 0.112 -166.91
2947.094 0.112 -166.914 0.628 -56.01 0.732 32.559 0.145 -40.491
          0.628 -56.01 0.112 -166.914 0.145 -40.491 0.732 32.559
          0.732 32.559 0.145 -40.491 0.112 -166.914 0.628 -56.01
          0.145 -40.491 0.732 32.559 0.628 -56.01 0.112 -166.914
2948.697 0.112 -166.918 0.628 -56.029 0.732 32.542 0.145 -40.536
          0.628 -56.029 0.112 -166.918 0.145 -40.536 0.732 32.542
          0.732 32.542 0.145 -40.536 0.112 -166.918 0.628 -56.029
          0.145 -40.536 0.732 32.542 0.628 -56.029 0.112 -166.918
2950.301 0.112 -166.922 0.627 -56.049 0.732 32.524 0.145 -40.582
          0.627 -56.049 0.112 -166.922 0.145 -40.582 0.732 32.524
          0.732 32.524 0.145 -40.582 0.112 -166.922 0.627 -56.049
          0.145 -40.582 0.732 32.524 0.627 -56.049 0.112 -166.922
2951.904 0.112 -166.926 0.627 -56.068 0.732 32.507 0.145 -40.627
          0.627 -56.068 0.112 -166.926 0.145 -40.627 0.732 32.507
          0.732 32.507 0.145 -40.627 0.112 -166.926 0.627 -56.068
          0.145 -40.627 0.732 32.507 0.627 -56.068 0.112 -166.926
2953.507 0.112 -166.929 0.627 -56.087 0.733 32.49 0.145 -40.673
          0.627 -56.087 0.112 -166.929 0.145 -40.673 0.733 32.49
          0.733 32.49 0.145 -40.673 0.112 -166.929 0.627 -56.087
          0.145 -40.673 0.733 32.49 0.627 -56.087 0.112 -166.929
2955.11 0.112 -166.933 0.627 -56.107 0.733 32.472 0.145 -40.719
          0.627 -56.107 0.112 -166.933 0.145 -40.719 0.733 32.472
          0.733 32.472 0.145 -40.719 0.112 -166.933 0.627 -56.107
          0.145 -40.719 0.733 32.472 0.627 -56.107 0.112 -166.933
2956.713 0.112 -166.937 0.627 -56.126 0.733 32.455 0.145 -40.764
          0.627 -56.126 0.112 -166.937 0.145 -40.764 0.733 32.455
          0.733 32.455 0.145 -40.764 0.112 -166.937 0.627 -56.126
          0.145 -40.764 0.733 32.455 0.627 -56.126 0.112 -166.937
2958.317 0.112 -166.94 0.627 -56.145 0.733 32.438 0.145 -40.81
          0.627 -56.145 0.112 -166.94 0.145 -40.81 0.733 32.438
          0.733 32.438 0.145 -40.81 0.112 -166.94 0.627 -56.145
          0.145 -40.81 0.733 32.438 0.627 -56.145 0.112 -166.94
2959.92 0.112 -166.944 0.626 -56.164 0.733 32.421 0.145 -40.855
          0.626 -56.164 0.112 -166.944 0.145 -40.855 0.733 32.421
          0.733 32.421 0.145 -40.855 0.112 -166.944 0.626 -56.164
          0.145 -40.855 0.733 32.421 0.626 -56.164 0.112 -166.944
2961.523 0.112 -166.947 0.626 -56.184 0.733 32.403 0.145 -40.901
          0.626 -56.184 0.112 -166.947 0.145 -40.901 0.733 32.403
          0.733 32.403 0.145 -40.901 0.112 -166.947 0.626 -56.184
          0.145 -40.901 0.733 32.403 0.626 -56.184 0.112 -166.947
2963.126 0.111 -166.95 0.626 -56.203 0.734 32.386 0.145 -40.946
          0.626 -56.203 0.111 -166.95 0.145 -40.946 0.734 32.386
          0.734 32.386 0.145 -40.946 0.111 -166.95 0.626 -56.203
          0.145 -40.946 0.734 32.386 0.626 -56.203 0.111 -166.95
2964.729 0.111 -166.954 0.626 -56.222 0.734 32.369 0.145 -40.991
          0.626 -56.222 0.111 -166.954 0.145 -40.991 0.734 32.369
          0.734 32.369 0.145 -40.991 0.111 -166.954 0.626 -56.222
          0.145 -40.991 0.734 32.369 0.626 -56.222 0.111 -166.954
2966.333 0.111 -166.957 0.626 -56.242 0.734 32.352 0.145 -41.037
          0.626 -56.242 0.111 -166.957 0.145 -41.037 0.734 32.352
          0.734 32.352 0.145 -41.037 0.111 -166.957 0.626 -56.242
          0.145 -41.037 0.734 32.352 0.626 -56.242 0.111 -166.957
2967.936 0.111 -166.96 0.625 -56.261 0.734 32.334 0.145 -41.082
          0.625 -56.261 0.111 -166.96 0.145 -41.082 0.734 32.334
          0.734 32.334 0.145 -41.082 0.111 -166.96 0.625 -56.261
          0.145 -41.082 0.734 32.334 0.625 -56.261 0.111 -166.96
2969.539 0.111 -166.963 0.625 -56.28 0.734 32.317 0.145 -41.128
          0.625 -56.28 0.111 -166.963 0.145 -41.128 0.734 32.317
          0.734 32.317 0.145 -41.128 0.111 -166.963 0.625 -56.28
          0.145 -41.128 0.734 32.317 0.625 -56.28 0.111 -166.963
2971.142 0.111 -166.966 0.625 -56.299 0.734 32.3 0.145 -41.173
          0.625 -56.299 0.111 -166.966 0.145 -41.173 0.734 32.3
          0.734 32.3 0.145 -41.173 0.111 -166.966 0.625 -56.299
          0.145 -41.173 0.734 32.3 0.625 -56.299 0.111 -166.966
2972.745 0.111 -166.969 0.625 -56.318 0.735 32.283 0.145 -41.218
          0.625 -56.318 0.111 -166.969 0.145 -41.218 0.735 32.283
          0.735 32.283 0.145 -41.218 0.111 -166.969 0.625 -56.318
          0.145 -41.218 0.735 32.283 0.625 -56.318 0.111 -166.969
2974.349 0.111 -166.972 0.625 -56.338 0.735 32.265 0.145 -41.264
          0.625 -56.338 0.111 -166.972 0.145 -41.264 0.735 32.265
          0.735 32.265 0.145 -41.264 0.111 -166.972 0.625 -56.338
          0.145 -41.264 0.735 32.265 0.625 -56.338 0.111 -166.972
2975.952 0.111 -166.975 0.625 -56.357 0.735 32.248 0.145 -41.309
          0.625 -56.357 0.111 -166.975 0.145 -41.309 0.735 32.248
          0.735 32.248 0.145 -41.309 0.111 -166.975 0.625 -56.357
          0.145 -41.309 0.735 32.248 0.625 -56.357 0.111 -166.975
2977.555 0.111 -166.978 0.624 -56.376 0.735 32.231 0.145 -41.354
          0.624 -56.376 0.111 -166.978 0.145 -41.354 0.735 32.231
          0.735 32.231 0.145 -41.354 0.111 -166.978 0.624 -56.376
          0.145 -41.354 0.735 32.231 0.624 -56.376 0.111 -166.978
2979.158 0.111 -166.981 0.624 -56.395 0.735 32.214 0.145 -41.4
          0.624 -56.395 0.111 -166.981 0.145 -41.4 0.735 32.214
          0.735 32.214 0.145 -41.4 0.111 -166.981 0.624 -56.395
          0.145 -41.4 0.735 32.214 0.624 -56.395 0.111 -166.981
2980.762 0.111 -166.984 0.624 -56.414 0.735 32.197 0.145 -41.445
          0.624 -56.414 0.111 -166.984 0.145 -41.445 0.735 32.197
          0.735 32.197 0.145 -41.445 0.111 -166.984 0.624 -56.414
          0.145 -41.445 0.735 32.197 0.624 -56.414 0.111 -166.984
2982.365 0.111 -166.986 0.624 -56.434 0.736 32.179 0.145 -41.49
          0.624 -56.434 0.111 -166.986 0.145 -41.49 0.736 32.179
          0.736 32.179 0.145 -41.49 0.111 -166.986 0.624 -56.434
          0.145 -41.49 0.736 32.179 0.624 -56.434 0.111 -166.986
2983.968 0.111 -166.989 0.624 -56.453 0.736 32.162 0.145 -41.535
          0.624 -56.453 0.111 -166.989 0.145 -41.535 0.736 32.162
          0.736 32.162 0.145 -41.535 0.111 -166.989 0.624 -56.453
          0.145 -41.535 0.736 32.162 0.624 -56.453 0.111 -166.989
2985.571 0.111 -166.991 0.623 -56.472 0.736 32.145 0.145 -41.58
          0.623 -56.472 0.111 -166.991 0.145 -41.58 0.736 32.145
          0.736 32.145 0.145 -41.58 0.111 -166.991 0.623 -56.472
          0.145 -41.58 0.736 32.145 0.623 -56.472 0.111 -166.991
2987.174 0.11 -166.994 0.623 -56.491 0.736 32.128 0.145 -41.626
          0.623 -56.491 0.11 -166.994 0.145 -41.626 0.736 32.128
          0.736 32.128 0.145 -41.626 0.11 -166.994 0.623 -56.491
          0.145 -41.626 0.736 32.128 0.623 -56.491 0.11 -166.994
2988.778 0.11 -166.996 0.623 -56.51 0.736 32.111 0.145 -41.671
          0.623 -56.51 0.11 -166.996 0.145 -41.671 0.736 32.111
          0.736 32.111 0.145 -41.671 0.11 -166.996 0.623 -56.51
          0.145 -41.671 0.736 32.111 0.623 -56.51 0.11 -166.996
2990.381 0.11 -166.999 0.623 -56.529 0.736 32.094 0.145 -41.716
          0.623 -56.529 0.11 -166.999 0.145 -41.716 0.736 32.094
          0.736 32.094 0.145 -41.716 0.11 -166.999 0.623 -56.529
          0.145 -41.716 0.736 32.094 0.623 -56.529 0.11 -166.999
2991.984 0.11 -167.001 0.623 -56.549 0.737 32.077 0.145 -41.761
          0.623 -56.549 0.11 -167.001 0.145 -41.761 0.737 32.077
          0.737 32.077 0.145 -41.761 0.11 -167.001 0.623 -56.549
          0.145 -41.761 0.737 32.077 0.623 -56.549 0.11 -167.001
2993.587 0.11 -167.003 0.623 -56.568 0.737 32.059 0.145 -41.806
          0.623 -56.568 0.11 -167.003 0.145 -41.806 0.737 32.059
          0.737 32.059 0.145 -41.806 0.11 -167.003 0.623 -56.568
          0.145 -41.806 0.737 32.059 0.623 -56.568 0.11 -167.003
2995.19 0.11 -167.005 0.622 -56.587 0.737 32.042 0.145 -41.851
          0.622 -56.587 0.11 -167.005 0.145 -41.851 0.737 32.042
          0.737 32.042 0.145 -41.851 0.11 -167.005 0.622 -56.587
          0.145 -41.851 0.737 32.042 0.622 -56.587 0.11 -167.005
2996.794 0.11 -167.007 0.622 -56.606 0.737 32.025 0.145 -41.896
          0.622 -56.606 0.11 -167.007 0.145 -41.896 0.737 32.025
          0.737 32.025 0.145 -41.896 0.11 -167.007 0.622 -56.606
          0.145 -41.896 0.737 32.025 0.622 -56.606 0.11 -167.007
2998.397 0.11 -167.009 0.622 -56.625 0.737 32.008 0.145 -41.941
          0.622 -56.625 0.11 -167.009 0.145 -41.941 0.737 32.008
          0.737 32.008 0.145 -41.941 0.11 -167.009 0.622 -56.625
          0.145 -41.941 0.737 32.008 0.622 -56.625 0.11 -167.009
3000 0.11 -167.011 0.622 -56.644 0.737 31.991 0.145 -41.986
          0.622 -56.644 0.11 -167.011 0.145 -41.986 0.737 31.991
          0.737 31.991 0.145 -41.986 0.11 -167.011 0.622 -56.644
          0.145 -41.986 0.737 31.991 0.622 -56.644 0.11 -167.011
